instr_Loop.thisRepN,instr_Loop.thisTrialN,instr_Loop.thisN,instr_Loop.thisIndex,instr_Loop.ran,instructionImage,time,age,sex (female/male),order,date,expName,psychopyVersion,OS,frameRate,struc_judge_respond.keys,struc_judge_respond.corr,struc_judge_respond.rt,dual_respond.keys,dual_respond.corr,dual_respond.rt,trials.thisRepN,trials.thisTrialN,trials.thisN,trials.thisIndex,trials.ran,stim1,stim2,isAnyChange,corrAns,selectBlock.thisRepN,selectBlock.thisTrialN,selectBlock.thisN,selectBlock.thisIndex,selectBlock.ran,condsFile,condsImage,remaining
0,0,0,0,1,Instructions/instr_1.png,5,20,m,B,2020-04-19_16h29.51.171,Remembering_Displays,2020.1.2,Win32,60,,,,,,,,,,,,,,,,,,,,,,,
0,1,1,1,1,Instructions/instr_2.png,3,20,m,B,2020-04-19_16h29.51.171,Remembering_Displays,2020.1.2,Win32,60,,,,,,,,,,,,,,,,,,,,,,,
0,2,2,2,1,Instructions/instr_3.png,5,20,m,B,2020-04-19_16h29.51.171,Remembering_Displays,2020.1.2,Win32,60,,,,,,,,,,,,,,,,,,,,,,,
0,3,3,3,1,Instructions/instr_4.png,1,20,m,B,2020-04-19_16h29.51.171,Remembering_Displays,2020.1.2,Win32,60,,,,,,,,,,,,,,,,,,,,,,,
0,4,4,4,1,Instructions/instr_5.png,1,20,m,B,2020-04-19_16h29.51.171,Remembering_Displays,2020.1.2,Win32,60,,,,,,,,,,,,,,,,,,,,,,,
0,5,5,5,1,Instructions/instr_6.png,1,20,m,B,2020-04-19_16h29.51.171,Remembering_Displays,2020.1.2,Win32,60,,,,,,,,,,,,,,,,,,,,,,,
0,6,6,6,1,Instructions/instr_7.png,1,20,m,B,2020-04-19_16h29.51.171,Remembering_Displays,2020.1.2,Win32,60,,,,,,,,,,,,,,,,,,,,,,,
0,7,7,7,1,Instructions/instr_8.png,3,20,m,B,2020-04-19_16h29.51.171,Remembering_Displays,2020.1.2,Win32,60,,,,,,,,,,,,,,,,,,,,,,,
0,8,8,8,1,Instructions/instr_9.png,3,20,m,B,2020-04-19_16h29.51.171,Remembering_Displays,2020.1.2,Win32,60,,,,,,,,,,,,,,,,,,,,,,,
0,9,9,9,1,Instructions/instr_10.png,3,20,m,B,2020-04-19_16h29.51.171,Remembering_Displays,2020.1.2,Win32,60,,,,,,,,,,,,,,,,,,,,,,,
0,10,10,10,1,Instructions/instr_11.png,3,20,m,B,2020-04-19_16h29.51.171,Remembering_Displays,2020.1.2,Win32,60,,,,,,,,,,,,,,,,,,,,,,,
0,11,11,11,1,Instructions/instr_12.png,3,20,m,B,2020-04-19_16h29.51.171,Remembering_Displays,2020.1.2,Win32,60,,,,,,,,,,,,,,,,,,,,,,,
0,12,12,12,1,Instructions/instr_13.png,3,20,m,B,2020-04-19_16h29.51.171,Remembering_Displays,2020.1.2,Win32,60,,,,,,,,,,,,,,,,,,,,,,,
0,13,13,13,1,Instructions/instr_14.png,3,20,m,B,2020-04-19_16h29.51.171,Remembering_Displays,2020.1.2,Win32,60,,,,,,,,,,,,,,,,,,,,,,,
0,14,14,14,1,Instructions/instr_15.png,3,20,m,B,2020-04-19_16h29.51.171,Remembering_Displays,2020.1.2,Win32,60,,,,,,,,,,,,,,,,,,,,,,,
,,,,,,,20,m,B,2020-04-19_16h29.51.171,Remembering_Displays,2020.1.2,Win32,60,9,0,1.127965,9,1,4.88689,0,0,0,3,1,Stimuli/practiceStimuliCube/practice4_s.png,Stimuli/practiceStimuliCube/practice4_d.png,1,1,,,,,,,,
,,,,,,,20,m,B,2020-04-19_16h29.51.171,Remembering_Displays,2020.1.2,Win32,60,1,1,1.016085,9,1,1.969515,0,1,1,1,1,Stimuli/practiceStimuliCube/practice2_s.png,Stimuli/practiceStimuliCube/practice2_d.png,1,1,,,,,,,,
,,,,,,,20,m,B,2020-04-19_16h29.51.171,Remembering_Displays,2020.1.2,Win32,60,1,0,1.092745,9,1,1.704145,0,2,2,2,1,Stimuli/practiceStimuliCube/practice3_s.png,Stimuli/practiceStimuliCube/practice3_s.png,0,9,,,,,,,,
,,,,,,,20,m,B,2020-04-19_16h29.51.171,Remembering_Displays,2020.1.2,Win32,60,9,1,0.45419,1,0,1.252055,0,3,3,0,1,Stimuli/practiceStimuliCube/practice1_s.png,Stimuli/practiceStimuliCube/practice1_s.png,0,9,,,,,,,,
,,,,,,,20,m,B,2020-04-19_16h29.51.171,Remembering_Displays,2020.1.2,Win32,60,,,,,,,,,,,,,,,,0,0,0,0,1,Stimuli/practiceListCubes.xlsx,Instructions/instr_20_practice.png,Practice trials completed
,,,,,,,20,m,B,2020-04-19_16h29.51.171,Remembering_Displays,2020.1.2,Win32,60,1,1,0.511725,1,1,1.30184,0,0,0,5,1,Stimuli/testStimuliCube/6u_s_3.png,Stimuli/testStimuliCube/6u_d_3.png,1,1,,,,,,,,
,,,,,,,20,m,B,2020-04-19_16h29.51.171,Remembering_Displays,2020.1.2,Win32,60,9,0,0.617315,9,1,1.119925,0,1,1,19,1,Stimuli/testStimuliCube/6u_s_4_s.png,Stimuli/testStimuliCube/6u_d_4_s.png,1,1,,,,,,,,
,,,,,,,20,m,B,2020-04-19_16h29.51.171,Remembering_Displays,2020.1.2,Win32,60,1,1,0.8921,1,0,1.25632,0,2,2,7,1,Stimuli/testStimuliCube/6u_s_4.png,Stimuli/testStimuliCube/6u_d_4.png,1,1,,,,,,,,
,,,,,,,20,m,B,2020-04-19_16h29.51.171,Remembering_Displays,2020.1.2,Win32,60,9,1,0.965095,9,1,1.3537,0,3,3,14,1,Stimuli/testStimuliCube/6u_s_2_s.png,Stimuli/testStimuliCube/6u_s_2_s.png,0,9,,,,,,,,
,,,,,,,20,m,B,2020-04-19_16h29.51.171,Remembering_Displays,2020.1.2,Win32,60,1,1,0.77734,9,1,1.871565,0,4,4,15,1,Stimuli/testStimuliCube/6u_s_2_s.png,Stimuli/testStimuliCube/6u_d_2_s.png,1,1,,,,,,,,
,,,,,,,20,m,B,2020-04-19_16h29.51.171,Remembering_Displays,2020.1.2,Win32,60,1,0,0.724035,9,1,1.05575,0,5,5,6,1,Stimuli/testStimuliCube/6u_s_4.png,Stimuli/testStimuliCube/6u_s_4.png,0,9,,,,,,,,
,,,,,,,20,m,B,2020-04-19_16h29.51.171,Remembering_Displays,2020.1.2,Win32,60,9,1,0.58916,1,1,2.505705,0,6,6,10,1,Stimuli/testStimuliCube/6u_s_6.png,Stimuli/testStimuliCube/6u_s_6.png,0,9,,,,,,,,
,,,,,,,20,m,B,2020-04-19_16h29.51.171,Remembering_Displays,2020.1.2,Win32,60,9,1,0.8718,1,0,0.701195,0,7,7,16,1,Stimuli/testStimuliCube/6u_s_3_s.png,Stimuli/testStimuliCube/6u_s_3_s.png,0,9,,,,,,,,
,,,,,,,20,m,B,2020-04-19_16h29.51.171,Remembering_Displays,2020.1.2,Win32,60,1,1,0.481565,9,1,0.785475,0,8,8,17,1,Stimuli/testStimuliCube/6u_s_3_s.png,Stimuli/testStimuliCube/6u_d_3_s.png,1,1,,,,,,,,
,,,,,,,20,m,B,2020-04-19_16h29.51.171,Remembering_Displays,2020.1.2,Win32,60,1,1,0.08703,9,1,0.951965,0,9,9,13,1,Stimuli/testStimuliCube/6u_s_1_s.png,Stimuli/testStimuliCube/6u_d_1_s.png,1,1,,,,,,,,
,,,,,,,20,m,B,2020-04-19_16h29.51.171,Remembering_Displays,2020.1.2,Win32,60,1,1,0.888355,1,1,1.52058,0,10,10,23,1,Stimuli/testStimuliCube/6u_s_6_s.png,Stimuli/testStimuliCube/6u_d_6_s.png,1,1,,,,,,,,
,,,,,,,20,m,B,2020-04-19_16h29.51.171,Remembering_Displays,2020.1.2,Win32,60,9,1,0.8194,1,1,0.768705,0,11,11,20,1,Stimuli/testStimuliCube/6u_s_5_s.png,Stimuli/testStimuliCube/6u_s_5_s.png,0,9,,,,,,,,
,,,,,,,20,m,B,2020-04-19_16h29.51.171,Remembering_Displays,2020.1.2,Win32,60,1,1,0.798445,1,1,2.46891,0,12,12,21,1,Stimuli/testStimuliCube/6u_s_5_s.png,Stimuli/testStimuliCube/6u_d_5_s.png,1,1,,,,,,,,
,,,,,,,20,m,B,2020-04-19_16h29.51.171,Remembering_Displays,2020.1.2,Win32,60,9,1,0.9803,1,1,0.76826,0,13,13,12,1,Stimuli/testStimuliCube/6u_s_1_s.png,Stimuli/testStimuliCube/6u_s_1_s.png,0,9,,,,,,,,
,,,,,,,20,m,B,2020-04-19_16h29.51.171,Remembering_Displays,2020.1.2,Win32,60,9,1,0.670165,1,1,0.58501,0,14,14,8,1,Stimuli/testStimuliCube/6u_s_5.png,Stimuli/testStimuliCube/6u_s_5.png,0,9,,,,,,,,
,,,,,,,20,m,B,2020-04-19_16h29.51.171,Remembering_Displays,2020.1.2,Win32,60,9,1,0.454965,1,0,0.677555,0,15,15,4,1,Stimuli/testStimuliCube/6u_s_3.png,Stimuli/testStimuliCube/6u_s_3.png,0,9,,,,,,,,
,,,,,,,20,m,B,2020-04-19_16h29.51.171,Remembering_Displays,2020.1.2,Win32,60,9,1,0.506135,1,1,0.76874,0,16,16,18,1,Stimuli/testStimuliCube/6u_s_4_s.png,Stimuli/testStimuliCube/6u_s_4_s.png,0,9,,,,,,,,
,,,,,,,20,m,B,2020-04-19_16h29.51.171,Remembering_Displays,2020.1.2,Win32,60,1,1,0.588465,9,1,1.137035,0,17,17,3,1,Stimuli/testStimuliCube/6u_s_2.png,Stimuli/testStimuliCube/6u_d_2.png,1,1,,,,,,,,
,,,,,,,20,m,B,2020-04-19_16h29.51.171,Remembering_Displays,2020.1.2,Win32,60,9,0,0.49225,9,1,0.935455,0,18,18,9,1,Stimuli/testStimuliCube/6u_s_5.png,Stimuli/testStimuliCube/6u_d_5.png,1,1,,,,,,,,
,,,,,,,20,m,B,2020-04-19_16h29.51.171,Remembering_Displays,2020.1.2,Win32,60,1,1,0.552925,1,1,0.85184,0,19,19,11,1,Stimuli/testStimuliCube/6u_s_6.png,Stimuli/testStimuliCube/6u_d_6.png,1,1,,,,,,,,
,,,,,,,20,m,B,2020-04-19_16h29.51.171,Remembering_Displays,2020.1.2,Win32,60,9,1,0.58579,1,1,1.218585,0,20,20,0,1,Stimuli/testStimuliCube/6u_s_1.png,Stimuli/testStimuliCube/6u_s_1.png,0,9,,,,,,,,
,,,,,,,20,m,B,2020-04-19_16h29.51.171,Remembering_Displays,2020.1.2,Win32,60,9,1,0.68618,1,0,0.872045,0,21,21,2,1,Stimuli/testStimuliCube/6u_s_2.png,Stimuli/testStimuliCube/6u_s_2.png,0,9,,,,,,,,
,,,,,,,20,m,B,2020-04-19_16h29.51.171,Remembering_Displays,2020.1.2,Win32,60,9,1,0.671915,1,1,0.8017,0,22,22,22,1,Stimuli/testStimuliCube/6u_s_6_s.png,Stimuli/testStimuliCube/6u_s_6_s.png,0,9,,,,,,,,
,,,,,,,20,m,B,2020-04-19_16h29.51.171,Remembering_Displays,2020.1.2,Win32,60,1,1,0.451925,1,0,0.69433,0,23,23,1,1,Stimuli/testStimuliCube/6u_s_1.png,Stimuli/testStimuliCube/6u_d_1.png,1,1,,,,,,,,
,,,,,,,20,m,B,2020-04-19_16h29.51.171,Remembering_Displays,2020.1.2,Win32,60,,,,,,,,,,,,,,,,0,1,1,1,1,Stimuli/trialListCubes1.xlsx,Instructions/instr_18.png,Progress: 24 of 192 trials completed
,,,,,,,20,m,B,2020-04-19_16h29.51.171,Remembering_Displays,2020.1.2,Win32,60,9,1,0.94359,1,1,0.556205,0,0,0,2,1,Stimuli/practiceStimuliSquare/practice3_s.png,Stimuli/practiceStimuliSquare/practice3_s.png,0,9,,,,,,,,
,,,,,,,20,m,B,2020-04-19_16h29.51.171,Remembering_Displays,2020.1.2,Win32,60,9,1,0.438045,9,1,5.120205,0,1,1,0,1,Stimuli/practiceStimuliSquare/practice1_s.png,Stimuli/practiceStimuliSquare/practice1_s.png,0,9,,,,,,,,
,,,,,,,20,m,B,2020-04-19_16h29.51.171,Remembering_Displays,2020.1.2,Win32,60,1,1,0.48455,1,1,0.918755,0,2,2,1,1,Stimuli/practiceStimuliSquare/practice2_s.png,Stimuli/practiceStimuliSquare/practice2_d.png,1,1,,,,,,,,
,,,,,,,20,m,B,2020-04-19_16h29.51.171,Remembering_Displays,2020.1.2,Win32,60,1,1,0.49479,1,1,0.85641,0,3,3,3,1,Stimuli/practiceStimuliSquare/practice4_s.png,Stimuli/practiceStimuliSquare/practice4_d.png,1,1,,,,,,,,
,,,,,,,20,m,B,2020-04-19_16h29.51.171,Remembering_Displays,2020.1.2,Win32,60,,,,,,,,,,,,,,,,0,2,2,2,1,Stimuli/practiceListSquares.xlsx,Instructions/instr_19_practice.png,Practice trials completed
,,,,,,,20,m,B,2020-04-19_16h29.51.171,Remembering_Displays,2020.1.2,Win32,60,1,1,0.494335,1,1,0.62002,0,0,0,9,1,Stimuli/testStimuliSquare/6u_s_23_2D.png,Stimuli/testStimuliSquare/6u_d_23_2D.png,1,1,,,,,,,,
,,,,,,,20,m,B,2020-04-19_16h29.51.171,Remembering_Displays,2020.1.2,Win32,60,9,1,0.50793,9,1,0.737425,0,1,1,16,1,Stimuli/testStimuliSquare/6u_s_21_s_2D.png,Stimuli/testStimuliSquare/6u_s_21_s_2D.png,0,9,,,,,,,,
,,,,,,,20,m,B,2020-04-19_16h29.51.171,Remembering_Displays,2020.1.2,Win32,60,1,1,0.39549,1,1,1.471275,0,2,2,3,1,Stimuli/testStimuliSquare/6u_s_20_2D.png,Stimuli/testStimuliSquare/6u_d_20_2D.png,1,1,,,,,,,,
,,,,,,,20,m,B,2020-04-19_16h29.51.171,Remembering_Displays,2020.1.2,Win32,60,1,1,0.564245,9,1,0.63482,0,3,3,23,1,Stimuli/testStimuliSquare/6u_s_24_s_2D.png,Stimuli/testStimuliSquare/6u_d_24_s_2D.png,1,1,,,,,,,,
,,,,,,,20,m,B,2020-04-19_16h29.51.171,Remembering_Displays,2020.1.2,Win32,60,1,1,0.39814,9,1,0.53807,0,4,4,21,1,Stimuli/testStimuliSquare/6u_s_23_s_2D.png,Stimuli/testStimuliSquare/6u_d_23_s_2D.png,1,1,,,,,,,,
,,,,,,,20,m,B,2020-04-19_16h29.51.171,Remembering_Displays,2020.1.2,Win32,60,9,1,0.387745,1,1,0.752485,0,5,5,14,1,Stimuli/testStimuliSquare/6u_s_20_s_2D.png,Stimuli/testStimuliSquare/6u_s_20_s_2D.png,0,9,,,,,,,,
,,,,,,,20,m,B,2020-04-19_16h29.51.171,Remembering_Displays,2020.1.2,Win32,60,1,1,0.445285,9,1,0.75189,0,6,6,13,1,Stimuli/testStimuliSquare/6u_s_19_s_2D.png,Stimuli/testStimuliSquare/6u_d_19_s_2D.png,1,1,,,,,,,,
,,,,,,,20,m,B,2020-04-19_16h29.51.171,Remembering_Displays,2020.1.2,Win32,60,9,1,0.384695,1,1,0.66801,0,7,7,10,1,Stimuli/testStimuliSquare/6u_s_24_2D.png,Stimuli/testStimuliSquare/6u_s_24_2D.png,0,9,,,,,,,,
,,,,,,,20,m,B,2020-04-19_16h29.51.171,Remembering_Displays,2020.1.2,Win32,60,9,1,0.472295,9,1,0.504785,0,8,8,8,1,Stimuli/testStimuliSquare/6u_s_23_2D.png,Stimuli/testStimuliSquare/6u_s_23_2D.png,0,9,,,,,,,,
,,,,,,,20,m,B,2020-04-19_16h29.51.171,Remembering_Displays,2020.1.2,Win32,60,1,1,0.50019,9,0,0.56955,0,9,9,11,1,Stimuli/testStimuliSquare/6u_s_24_2D.png,Stimuli/testStimuliSquare/6u_d_24_2D.png,1,1,,,,,,,,
,,,,,,,20,m,B,2020-04-19_16h29.51.171,Remembering_Displays,2020.1.2,Win32,60,9,1,0.43723,1,1,0.80986,0,10,10,20,1,Stimuli/testStimuliSquare/6u_s_23_s_2D.png,Stimuli/testStimuliSquare/6u_s_23_s_2D.png,0,9,,,,,,,,
,,,,,,,20,m,B,2020-04-19_16h29.51.171,Remembering_Displays,2020.1.2,Win32,60,1,1,0.414615,1,1,0.652875,0,11,11,1,1,Stimuli/testStimuliSquare/6u_s_19_2D.png,Stimuli/testStimuliSquare/6u_d_19_2D.png,1,1,,,,,,,,
,,,,,,,20,m,B,2020-04-19_16h29.51.171,Remembering_Displays,2020.1.2,Win32,60,9,1,0.522095,1,1,0.620855,0,12,12,22,1,Stimuli/testStimuliSquare/6u_s_24_s_2D.png,Stimuli/testStimuliSquare/6u_s_24_s_2D.png,0,9,,,,,,,,
,,,,,,,20,m,B,2020-04-19_16h29.51.171,Remembering_Displays,2020.1.2,Win32,60,9,1,0.47683,9,1,0.43554,0,13,13,2,1,Stimuli/testStimuliSquare/6u_s_20_2D.png,Stimuli/testStimuliSquare/6u_s_20_2D.png,0,9,,,,,,,,
,,,,,,,20,m,B,2020-04-19_16h29.51.171,Remembering_Displays,2020.1.2,Win32,60,9,1,0.30507,1,1,0.75643,0,14,14,0,1,Stimuli/testStimuliSquare/6u_s_19_2D.png,Stimuli/testStimuliSquare/6u_s_19_2D.png,0,9,,,,,,,,
,,,,,,,20,m,B,2020-04-19_16h29.51.171,Remembering_Displays,2020.1.2,Win32,60,1,1,0.51915,1,1,0.59056,0,15,15,5,1,Stimuli/testStimuliSquare/6u_s_21_2D.png,Stimuli/testStimuliSquare/6u_d_21_2D.png,1,1,,,,,,,,
,,,,,,,20,m,B,2020-04-19_16h29.51.171,Remembering_Displays,2020.1.2,Win32,60,9,1,0.67226,9,0,0.201975,0,16,16,12,1,Stimuli/testStimuliSquare/6u_s_19_s_2D.png,Stimuli/testStimuliSquare/6u_s_19_s_2D.png,0,9,,,,,,,,
,,,,,,,20,m,B,2020-04-19_16h29.51.171,Remembering_Displays,2020.1.2,Win32,60,9,1,0.454825,9,1,1.35156,0,17,17,18,1,Stimuli/testStimuliSquare/6u_s_22_s_2D.png,Stimuli/testStimuliSquare/6u_s_22_s_2D.png,0,9,,,,,,,,
,,,,,,,20,m,B,2020-04-19_16h29.51.171,Remembering_Displays,2020.1.2,Win32,60,1,1,0.581045,1,1,0.718525,0,18,18,17,1,Stimuli/testStimuliSquare/6u_s_21_s_2D.png,Stimuli/testStimuliSquare/6u_d_21_s_2D.png,1,1,,,,,,,,
,,,,,,,20,m,B,2020-04-19_16h29.51.171,Remembering_Displays,2020.1.2,Win32,60,9,1,0.439715,1,1,0.50624,0,19,19,4,1,Stimuli/testStimuliSquare/6u_s_21_2D.png,Stimuli/testStimuliSquare/6u_s_21_2D.png,0,9,,,,,,,,
,,,,,,,20,m,B,2020-04-19_16h29.51.171,Remembering_Displays,2020.1.2,Win32,60,1,1,0.364305,9,1,0.90226,0,20,20,7,1,Stimuli/testStimuliSquare/6u_s_22_2D.png,Stimuli/testStimuliSquare/6u_d_22_2D.png,1,1,,,,,,,,
,,,,,,,20,m,B,2020-04-19_16h29.51.171,Remembering_Displays,2020.1.2,Win32,60,1,1,0.462945,9,1,0.635285,0,21,21,19,1,Stimuli/testStimuliSquare/6u_s_22_s_2D.png,Stimuli/testStimuliSquare/6u_d_22_s_2D.png,1,1,,,,,,,,
,,,,,,,20,m,B,2020-04-19_16h29.51.171,Remembering_Displays,2020.1.2,Win32,60,9,1,0.508325,9,1,1.652515,0,22,22,6,1,Stimuli/testStimuliSquare/6u_s_22_2D.png,Stimuli/testStimuliSquare/6u_s_22_2D.png,0,9,,,,,,,,
,,,,,,,20,m,B,2020-04-19_16h29.51.171,Remembering_Displays,2020.1.2,Win32,60,1,1,0.4755,9,1,0.68527,0,23,23,15,1,Stimuli/testStimuliSquare/6u_s_20_s_2D.png,Stimuli/testStimuliSquare/6u_d_20_s_2D.png,1,1,,,,,,,,
,,,,,,,20,m,B,2020-04-19_16h29.51.171,Remembering_Displays,2020.1.2,Win32,60,,,,,,,,,,,,,,,,0,3,3,3,1,Stimuli/trialListSquares4.xlsx,Instructions/instr_17.png,Progress: 48 of 192 trials completed
,,,,,,,20,m,B,2020-04-19_16h29.51.171,Remembering_Displays,2020.1.2,Win32,60,9,1,0.538105,9,1,0.65225,0,0,0,22,1,Stimuli/testStimuliCube/6u_s_12_s.png,Stimuli/testStimuliCube/6u_s_12_s.png,0,9,,,,,,,,
,,,,,,,20,m,B,2020-04-19_16h29.51.171,Remembering_Displays,2020.1.2,Win32,60,9,1,0.40276,1,1,1.354265,0,1,1,8,1,Stimuli/testStimuliCube/6u_s_11.png,Stimuli/testStimuliCube/6u_s_11.png,0,9,,,,,,,,
,,,,,,,20,m,B,2020-04-19_16h29.51.171,Remembering_Displays,2020.1.2,Win32,60,9,1,0.384175,1,1,0.618705,0,2,2,0,1,Stimuli/testStimuliCube/6u_s_7.png,Stimuli/testStimuliCube/6u_s_7.png,0,9,,,,,,,,
,,,,,,,20,m,B,2020-04-19_16h29.51.171,Remembering_Displays,2020.1.2,Win32,60,1,1,0.582585,9,1,0.60207,0,3,3,21,1,Stimuli/testStimuliCube/6u_s_11_s.png,Stimuli/testStimuliCube/6u_d_11_s.png,1,1,,,,,,,,
,,,,,,,20,m,B,2020-04-19_16h29.51.171,Remembering_Displays,2020.1.2,Win32,60,9,1,0.38775,1,1,0.834605,0,4,4,14,1,Stimuli/testStimuliCube/6u_s_8_s.png,Stimuli/testStimuliCube/6u_s_8_s.png,0,9,,,,,,,,
,,,,,,,20,m,B,2020-04-19_16h29.51.171,Remembering_Displays,2020.1.2,Win32,60,9,0,0.37096,1,1,0.918935,0,5,5,5,1,Stimuli/testStimuliCube/6u_s_9.png,Stimuli/testStimuliCube/6u_d_9.png,1,1,,,,,,,,
,,,,,,,20,m,B,2020-04-19_16h29.51.171,Remembering_Displays,2020.1.2,Win32,60,1,1,0.55635,9,1,0.540145,0,6,6,17,1,Stimuli/testStimuliCube/6u_s_9_s.png,Stimuli/testStimuliCube/6u_d_9_s.png,1,1,,,,,,,,
,,,,,,,20,m,B,2020-04-19_16h29.51.171,Remembering_Displays,2020.1.2,Win32,60,9,1,0.554175,9,1,1.468325,0,7,7,10,1,Stimuli/testStimuliCube/6u_s_12.png,Stimuli/testStimuliCube/6u_s_12.png,0,9,,,,,,,,
,,,,,,,20,m,B,2020-04-19_16h29.51.171,Remembering_Displays,2020.1.2,Win32,60,9,0,0.32784,1,1,0.92738,0,8,8,7,1,Stimuli/testStimuliCube/6u_s_10.png,Stimuli/testStimuliCube/6u_d_10.png,1,1,,,,,,,,
,,,,,,,20,m,B,2020-04-19_16h29.51.171,Remembering_Displays,2020.1.2,Win32,60,9,0,0.65856,9,1,0.86956,0,9,9,3,1,Stimuli/testStimuliCube/6u_s_8.png,Stimuli/testStimuliCube/6u_d_8.png,1,1,,,,,,,,
,,,,,,,20,m,B,2020-04-19_16h29.51.171,Remembering_Displays,2020.1.2,Win32,60,1,1,0.471585,1,1,1.70439,0,10,10,1,1,Stimuli/testStimuliCube/6u_s_7.png,Stimuli/testStimuliCube/6u_d_7.png,1,1,,,,,,,,
,,,,,,,20,m,B,2020-04-19_16h29.51.171,Remembering_Displays,2020.1.2,Win32,60,9,1,0.422485,9,0,0.7753,0,11,11,20,1,Stimuli/testStimuliCube/6u_s_11_s.png,Stimuli/testStimuliCube/6u_s_11_s.png,0,9,,,,,,,,
,,,,,,,20,m,B,2020-04-19_16h29.51.171,Remembering_Displays,2020.1.2,Win32,60,9,1,0.422085,9,1,3.01744,0,12,12,16,1,Stimuli/testStimuliCube/6u_s_9_s.png,Stimuli/testStimuliCube/6u_s_9_s.png,0,9,,,,,,,,
,,,,,,,20,m,B,2020-04-19_16h29.51.171,Remembering_Displays,2020.1.2,Win32,60,1,1,0.444955,9,1,0.901985,0,13,13,13,1,Stimuli/testStimuliCube/6u_s_7_s.png,Stimuli/testStimuliCube/6u_d_7_s.png,1,1,,,,,,,,
,,,,,,,20,m,B,2020-04-19_16h29.51.171,Remembering_Displays,2020.1.2,Win32,60,9,1,0.48806,9,1,0.601655,0,14,14,18,1,Stimuli/testStimuliCube/6u_s_10_s.png,Stimuli/testStimuliCube/6u_s_10_s.png,0,9,,,,,,,,
,,,,,,,20,m,B,2020-04-19_16h29.51.171,Remembering_Displays,2020.1.2,Win32,60,9,1,0.46262,9,1,0.455665,0,15,15,12,1,Stimuli/testStimuliCube/6u_s_7_s.png,Stimuli/testStimuliCube/6u_s_7_s.png,0,9,,,,,,,,
,,,,,,,20,m,B,2020-04-19_16h29.51.171,Remembering_Displays,2020.1.2,Win32,60,9,1,0.38598,1,1,0.9962,0,16,16,6,1,Stimuli/testStimuliCube/6u_s_10.png,Stimuli/testStimuliCube/6u_s_10.png,0,9,,,,,,,,
,,,,,,,20,m,B,2020-04-19_16h29.51.171,Remembering_Displays,2020.1.2,Win32,60,9,1,0.5699,1,1,0.508445,0,17,17,2,1,Stimuli/testStimuliCube/6u_s_8.png,Stimuli/testStimuliCube/6u_s_8.png,0,9,,,,,,,,
,,,,,,,20,m,B,2020-04-19_16h29.51.171,Remembering_Displays,2020.1.2,Win32,60,1,1,0.89579,1,1,4.82091,0,18,18,19,1,Stimuli/testStimuliCube/6u_s_10_s.png,Stimuli/testStimuliCube/6u_d_10_s.png,1,1,,,,,,,,
,,,,,,,20,m,B,2020-04-19_16h29.51.171,Remembering_Displays,2020.1.2,Win32,60,9,0,0.834815,1,1,0.91806,0,19,19,9,1,Stimuli/testStimuliCube/6u_s_11.png,Stimuli/testStimuliCube/6u_d_11.png,1,1,,,,,,,,
,,,,,,,20,m,B,2020-04-19_16h29.51.171,Remembering_Displays,2020.1.2,Win32,60,9,0,0.33531,1,1,1.306665,0,20,20,11,1,Stimuli/testStimuliCube/6u_s_12.png,Stimuli/testStimuliCube/6u_d_12.png,1,1,,,,,,,,
,,,,,,,20,m,B,2020-04-19_16h29.51.171,Remembering_Displays,2020.1.2,Win32,60,1,1,0.62896,9,1,0.93491,0,21,21,23,1,Stimuli/testStimuliCube/6u_s_12_s.png,Stimuli/testStimuliCube/6u_d_12_s.png,1,1,,,,,,,,
,,,,,,,20,m,B,2020-04-19_16h29.51.171,Remembering_Displays,2020.1.2,Win32,60,9,0,0.446125,1,1,1.068525,0,22,22,15,1,Stimuli/testStimuliCube/6u_s_8_s.png,Stimuli/testStimuliCube/6u_d_8_s.png,1,1,,,,,,,,
,,,,,,,20,m,B,2020-04-19_16h29.51.171,Remembering_Displays,2020.1.2,Win32,60,9,1,0.408915,1,1,0.551765,0,23,23,4,1,Stimuli/testStimuliCube/6u_s_9.png,Stimuli/testStimuliCube/6u_s_9.png,0,9,,,,,,,,
,,,,,,,20,m,B,2020-04-19_16h29.51.171,Remembering_Displays,2020.1.2,Win32,60,,,,,,,,,,,,,,,,0,4,4,4,1,Stimuli/trialListCubes2.xlsx,Instructions/instr_18.png,Progress: 72 of 192 trials completed
,,,,,,,20,m,B,2020-04-19_16h29.51.171,Remembering_Displays,2020.1.2,Win32,60,1,1,0.940605,1,1,0.59651,0,0,0,1,1,Stimuli/testStimuliSquare/6u_s_13_2D.png,Stimuli/testStimuliSquare/6u_d_13_2D.png,1,1,,,,,,,,
,,,,,,,20,m,B,2020-04-19_16h29.51.171,Remembering_Displays,2020.1.2,Win32,60,9,0,0.378525,1,1,0.56843,0,1,1,11,1,Stimuli/testStimuliSquare/6u_s_18_2D.png,Stimuli/testStimuliSquare/6u_d_18_2D.png,1,1,,,,,,,,
,,,,,,,20,m,B,2020-04-19_16h29.51.171,Remembering_Displays,2020.1.2,Win32,60,1,0,0.722185,9,1,0.65304,0,2,2,20,1,Stimuli/testStimuliSquare/6u_s_17_s_2D.png,Stimuli/testStimuliSquare/6u_s_17_s_2D.png,0,9,,,,,,,,
,,,,,,,20,m,B,2020-04-19_16h29.51.171,Remembering_Displays,2020.1.2,Win32,60,1,1,0.424585,9,1,0.896965,0,3,3,5,1,Stimuli/testStimuliSquare/6u_s_15_2D.png,Stimuli/testStimuliSquare/6u_d_15_2D.png,1,1,,,,,,,,
,,,,,,,20,m,B,2020-04-19_16h29.51.171,Remembering_Displays,2020.1.2,Win32,60,9,1,0.654265,9,1,0.95246,0,4,4,0,1,Stimuli/testStimuliSquare/6u_s_13_2D.png,Stimuli/testStimuliSquare/6u_s_13_2D.png,0,9,,,,,,,,
,,,,,,,20,m,B,2020-04-19_16h29.51.171,Remembering_Displays,2020.1.2,Win32,60,1,1,0.442095,1,1,0.9544,0,5,5,13,1,Stimuli/testStimuliSquare/6u_s_13_s_2D.png,Stimuli/testStimuliSquare/6u_d_13_s_2D.png,1,1,,,,,,,,
,,,,,,,20,m,B,2020-04-19_16h29.51.171,Remembering_Displays,2020.1.2,Win32,60,1,1,0.423515,1,1,0.6537,0,6,6,3,1,Stimuli/testStimuliSquare/6u_s_14_2D.png,Stimuli/testStimuliSquare/6u_d_14_2D.png,1,1,,,,,,,,
,,,,,,,20,m,B,2020-04-19_16h29.51.171,Remembering_Displays,2020.1.2,Win32,60,9,1,0.513575,1,1,0.55793,0,7,7,4,1,Stimuli/testStimuliSquare/6u_s_15_2D.png,Stimuli/testStimuliSquare/6u_s_15_2D.png,0,9,,,,,,,,
,,,,,,,20,m,B,2020-04-19_16h29.51.171,Remembering_Displays,2020.1.2,Win32,60,9,0,0.400085,1,1,0.768365,0,8,8,21,1,Stimuli/testStimuliSquare/6u_s_17_s_2D.png,Stimuli/testStimuliSquare/6u_d_17_s_2D.png,1,1,,,,,,,,
,,,,,,,20,m,B,2020-04-19_16h29.51.171,Remembering_Displays,2020.1.2,Win32,60,1,1,0.450865,1,0,0.46817,0,9,9,17,1,Stimuli/testStimuliSquare/6u_s_15_s_2D.png,Stimuli/testStimuliSquare/6u_d_15_s_2D.png,1,1,,,,,,,,
,,,,,,,20,m,B,2020-04-19_16h29.51.171,Remembering_Displays,2020.1.2,Win32,60,9,1,0.389015,9,1,0.6088,0,10,10,8,1,Stimuli/testStimuliSquare/6u_s_17_2D.png,Stimuli/testStimuliSquare/6u_s_17_2D.png,0,9,,,,,,,,
,,,,,,,20,m,B,2020-04-19_16h29.51.171,Remembering_Displays,2020.1.2,Win32,60,1,1,0.490295,9,1,0.718765,0,11,11,15,1,Stimuli/testStimuliSquare/6u_s_14_s_2D.png,Stimuli/testStimuliSquare/6u_d_14_s_2D.png,1,1,,,,,,,,
,,,,,,,20,m,B,2020-04-19_16h29.51.171,Remembering_Displays,2020.1.2,Win32,60,9,1,0.40862,9,1,0.704195,0,12,12,14,1,Stimuli/testStimuliSquare/6u_s_14_s_2D.png,Stimuli/testStimuliSquare/6u_s_14_s_2D.png,0,9,,,,,,,,
,,,,,,,20,m,B,2020-04-19_16h29.51.171,Remembering_Displays,2020.1.2,Win32,60,9,1,0.372755,9,1,0.384985,0,13,13,18,1,Stimuli/testStimuliSquare/6u_s_16_s_2D.png,Stimuli/testStimuliSquare/6u_s_16_s_2D.png,0,9,,,,,,,,
,,,,,,,20,m,B,2020-04-19_16h29.51.171,Remembering_Displays,2020.1.2,Win32,60,9,1,0.3384,1,1,0.638475,0,14,14,10,1,Stimuli/testStimuliSquare/6u_s_18_2D.png,Stimuli/testStimuliSquare/6u_s_18_2D.png,0,9,,,,,,,,
,,,,,,,20,m,B,2020-04-19_16h29.51.171,Remembering_Displays,2020.1.2,Win32,60,9,1,0.33767,9,1,0.73562,0,15,15,12,1,Stimuli/testStimuliSquare/6u_s_13_s_2D.png,Stimuli/testStimuliSquare/6u_s_13_s_2D.png,0,9,,,,,,,,
,,,,,,,20,m,B,2020-04-19_16h29.51.171,Remembering_Displays,2020.1.2,Win32,60,9,0,0.41034,1,1,0.903195,0,16,16,23,1,Stimuli/testStimuliSquare/6u_s_18_s_2D.png,Stimuli/testStimuliSquare/6u_d_18_s_2D.png,1,1,,,,,,,,
,,,,,,,20,m,B,2020-04-19_16h29.51.171,Remembering_Displays,2020.1.2,Win32,60,1,1,0.85719,1,1,0.84166,0,17,17,9,1,Stimuli/testStimuliSquare/6u_s_17_2D.png,Stimuli/testStimuliSquare/6u_d_17_2D.png,1,1,,,,,,,,
,,,,,,,20,m,B,2020-04-19_16h29.51.171,Remembering_Displays,2020.1.2,Win32,60,1,1,0.843645,9,1,1.402145,0,18,18,7,1,Stimuli/testStimuliSquare/6u_s_16_2D.png,Stimuli/testStimuliSquare/6u_d_16_2D.png,1,1,,,,,,,,
,,,,,,,20,m,B,2020-04-19_16h29.51.171,Remembering_Displays,2020.1.2,Win32,60,9,1,0.62335,9,1,0.737695,0,19,19,22,1,Stimuli/testStimuliSquare/6u_s_18_s_2D.png,Stimuli/testStimuliSquare/6u_s_18_s_2D.png,0,9,,,,,,,,
,,,,,,,20,m,B,2020-04-19_16h29.51.171,Remembering_Displays,2020.1.2,Win32,60,9,1,0.34378,9,1,0.535435,0,20,20,6,1,Stimuli/testStimuliSquare/6u_s_16_2D.png,Stimuli/testStimuliSquare/6u_s_16_2D.png,0,9,,,,,,,,
,,,,,,,20,m,B,2020-04-19_16h29.51.171,Remembering_Displays,2020.1.2,Win32,60,9,1,0.72213,9,1,0.529475,0,21,21,2,1,Stimuli/testStimuliSquare/6u_s_14_2D.png,Stimuli/testStimuliSquare/6u_s_14_2D.png,0,9,,,,,,,,
,,,,,,,20,m,B,2020-04-19_16h29.51.171,Remembering_Displays,2020.1.2,Win32,60,9,1,0.62569,1,1,1.61179,0,22,22,16,1,Stimuli/testStimuliSquare/6u_s_15_s_2D.png,Stimuli/testStimuliSquare/6u_s_15_s_2D.png,0,9,,,,,,,,
,,,,,,,20,m,B,2020-04-19_16h29.51.171,Remembering_Displays,2020.1.2,Win32,60,1,1,0.51132,1,1,0.8884,0,23,23,19,1,Stimuli/testStimuliSquare/6u_s_16_s_2D.png,Stimuli/testStimuliSquare/6u_d_16_s_2D.png,1,1,,,,,,,,
,,,,,,,20,m,B,2020-04-19_16h29.51.171,Remembering_Displays,2020.1.2,Win32,60,,,,,,,,,,,,,,,,0,5,5,5,1,Stimuli/trialListSquares3.xlsx,Instructions/instr_17.png,Progress: 96 of 192 trials completed
,,,,,,,20,m,B,2020-04-19_16h29.51.171,Remembering_Displays,2020.1.2,Win32,60,9,1,0.444225,1,1,0.538405,0,0,0,4,1,Stimuli/testStimuliCube/6u_s_15.png,Stimuli/testStimuliCube/6u_s_15.png,0,9,,,,,,,,
,,,,,,,20,m,B,2020-04-19_16h29.51.171,Remembering_Displays,2020.1.2,Win32,60,1,1,1.04021,1,1,0.835805,0,1,1,13,1,Stimuli/testStimuliCube/6u_s_13_s.png,Stimuli/testStimuliCube/6u_d_13_s.png,1,1,,,,,,,,
,,,,,,,20,m,B,2020-04-19_16h29.51.171,Remembering_Displays,2020.1.2,Win32,60,9,1,0.39077,9,1,0.635595,0,2,2,2,1,Stimuli/testStimuliCube/6u_s_14.png,Stimuli/testStimuliCube/6u_s_14.png,0,9,,,,,,,,
,,,,,,,20,m,B,2020-04-19_16h29.51.171,Remembering_Displays,2020.1.2,Win32,60,9,0,0.40181,9,1,0.92356,0,3,3,23,1,Stimuli/testStimuliCube/6u_s_18_s.png,Stimuli/testStimuliCube/6u_d_18_s.png,1,1,,,,,,,,
,,,,,,,20,m,B,2020-04-19_16h29.51.171,Remembering_Displays,2020.1.2,Win32,60,9,1,0.409475,1,1,0.489135,0,4,4,18,1,Stimuli/testStimuliCube/6u_s_16_s.png,Stimuli/testStimuliCube/6u_s_16_s.png,0,9,,,,,,,,
,,,,,,,20,m,B,2020-04-19_16h29.51.171,Remembering_Displays,2020.1.2,Win32,60,1,1,0.50402,9,1,0.6188,0,5,5,1,1,Stimuli/testStimuliCube/6u_s_13.png,Stimuli/testStimuliCube/6u_d_13.png,1,1,,,,,,,,
,,,,,,,20,m,B,2020-04-19_16h29.51.171,Remembering_Displays,2020.1.2,Win32,60,1,1,0.53989,1,1,0.888085,0,6,6,17,1,Stimuli/testStimuliCube/6u_s_15_s.png,Stimuli/testStimuliCube/6u_d_15_s.png,1,1,,,,,,,,
,,,,,,,20,m,B,2020-04-19_16h29.51.171,Remembering_Displays,2020.1.2,Win32,60,9,1,0.954845,9,1,0.487405,0,7,7,6,1,Stimuli/testStimuliCube/6u_s_16.png,Stimuli/testStimuliCube/6u_s_16.png,0,9,,,,,,,,
,,,,,,,20,m,B,2020-04-19_16h29.51.171,Remembering_Displays,2020.1.2,Win32,60,9,0,0.430925,9,1,1.01339,0,8,8,21,1,Stimuli/testStimuliCube/6u_s_17_s.png,Stimuli/testStimuliCube/6u_d_17_s.png,1,1,,,,,,,,
,,,,,,,20,m,B,2020-04-19_16h29.51.171,Remembering_Displays,2020.1.2,Win32,60,1,1,0.48636,1,1,1.25266,0,9,9,15,1,Stimuli/testStimuliCube/6u_s_14_s.png,Stimuli/testStimuliCube/6u_d_14_s.png,1,1,,,,,,,,
,,,,,,,20,m,B,2020-04-19_16h29.51.171,Remembering_Displays,2020.1.2,Win32,60,9,0,0.420095,1,1,0.601915,0,10,10,11,1,Stimuli/testStimuliCube/6u_s_18.png,Stimuli/testStimuliCube/6u_d_18.png,1,1,,,,,,,,
,,,,,,,20,m,B,2020-04-19_16h29.51.171,Remembering_Displays,2020.1.2,Win32,60,1,1,0.453625,9,1,0.83962,0,11,11,3,1,Stimuli/testStimuliCube/6u_s_14.png,Stimuli/testStimuliCube/6u_d_14.png,1,1,,,,,,,,
,,,,,,,20,m,B,2020-04-19_16h29.51.171,Remembering_Displays,2020.1.2,Win32,60,9,1,0.453875,1,1,0.676595,0,12,12,14,1,Stimuli/testStimuliCube/6u_s_14_s.png,Stimuli/testStimuliCube/6u_s_14_s.png,0,9,,,,,,,,
,,,,,,,20,m,B,2020-04-19_16h29.51.171,Remembering_Displays,2020.1.2,Win32,60,9,1,0.387745,9,1,0.589505,0,13,13,10,1,Stimuli/testStimuliCube/6u_s_18.png,Stimuli/testStimuliCube/6u_s_18.png,0,9,,,,,,,,
,,,,,,,20,m,B,2020-04-19_16h29.51.171,Remembering_Displays,2020.1.2,Win32,60,9,1,0.395165,1,1,0.54578,0,14,14,22,1,Stimuli/testStimuliCube/6u_s_18_s.png,Stimuli/testStimuliCube/6u_s_18_s.png,0,9,,,,,,,,
,,,,,,,20,m,B,2020-04-19_16h29.51.171,Remembering_Displays,2020.1.2,Win32,60,1,1,0.394545,1,0,0.641585,0,15,15,19,1,Stimuli/testStimuliCube/6u_s_16_s.png,Stimuli/testStimuliCube/6u_d_16_s.png,1,1,,,,,,,,
,,,,,,,20,m,B,2020-04-19_16h29.51.171,Remembering_Displays,2020.1.2,Win32,60,,0,,9,1,1.00808,0,16,16,7,1,Stimuli/testStimuliCube/6u_s_16.png,Stimuli/testStimuliCube/6u_d_16.png,1,1,,,,,,,,
,,,,,,,20,m,B,2020-04-19_16h29.51.171,Remembering_Displays,2020.1.2,Win32,60,9,1,0.479595,9,1,0.627535,0,17,17,8,1,Stimuli/testStimuliCube/6u_s_17.png,Stimuli/testStimuliCube/6u_s_17.png,0,9,,,,,,,,
,,,,,,,20,m,B,2020-04-19_16h29.51.171,Remembering_Displays,2020.1.2,Win32,60,9,0,0.52283,1,1,0.741465,0,18,18,9,1,Stimuli/testStimuliCube/6u_s_17.png,Stimuli/testStimuliCube/6u_d_17.png,1,1,,,,,,,,
,,,,,,,20,m,B,2020-04-19_16h29.51.171,Remembering_Displays,2020.1.2,Win32,60,1,1,0.46478,1,1,0.48957,0,19,19,5,1,Stimuli/testStimuliCube/6u_s_15.png,Stimuli/testStimuliCube/6u_d_15.png,1,1,,,,,,,,
,,,,,,,20,m,B,2020-04-19_16h29.51.171,Remembering_Displays,2020.1.2,Win32,60,9,1,0.52761,9,1,0.468405,0,20,20,0,1,Stimuli/testStimuliCube/6u_s_13.png,Stimuli/testStimuliCube/6u_s_13.png,0,9,,,,,,,,
,,,,,,,20,m,B,2020-04-19_16h29.51.171,Remembering_Displays,2020.1.2,Win32,60,9,1,0.37473,1,1,0.556975,0,21,21,12,1,Stimuli/testStimuliCube/6u_s_13_s.png,Stimuli/testStimuliCube/6u_s_13_s.png,0,9,,,,,,,,
,,,,,,,20,m,B,2020-04-19_16h29.51.171,Remembering_Displays,2020.1.2,Win32,60,9,1,0.376385,9,1,0.326145,0,22,22,16,1,Stimuli/testStimuliCube/6u_s_15_s.png,Stimuli/testStimuliCube/6u_s_15_s.png,0,9,,,,,,,,
,,,,,,,20,m,B,2020-04-19_16h29.51.171,Remembering_Displays,2020.1.2,Win32,60,9,1,0.445295,1,1,0.957725,0,23,23,20,1,Stimuli/testStimuliCube/6u_s_17_s.png,Stimuli/testStimuliCube/6u_s_17_s.png,0,9,,,,,,,,
,,,,,,,20,m,B,2020-04-19_16h29.51.171,Remembering_Displays,2020.1.2,Win32,60,,,,,,,,,,,,,,,,0,6,6,6,1,Stimuli/trialListCubes3.xlsx,Instructions/instr_18.png,Progress: 120 of 192 trials completed
,,,,,,,20,m,B,2020-04-19_16h29.51.171,Remembering_Displays,2020.1.2,Win32,60,9,1,0.592245,9,1,0.475335,0,0,0,14,1,Stimuli/testStimuliSquare/6u_s_8_s_2D.png,Stimuli/testStimuliSquare/6u_s_8_s_2D.png,0,9,,,,,,,,
,,,,,,,20,m,B,2020-04-19_16h29.51.171,Remembering_Displays,2020.1.2,Win32,60,9,0,0.300495,1,1,0.523135,0,1,1,9,1,Stimuli/testStimuliSquare/6u_s_11_2D.png,Stimuli/testStimuliSquare/6u_d_11_2D.png,1,1,,,,,,,,
,,,,,,,20,m,B,2020-04-19_16h29.51.171,Remembering_Displays,2020.1.2,Win32,60,1,0,0.56311,1,1,0.65515,0,2,2,0,1,Stimuli/testStimuliSquare/6u_s_7_2D.png,Stimuli/testStimuliSquare/6u_s_7_2D.png,0,9,,,,,,,,
,,,,,,,20,m,B,2020-04-19_16h29.51.171,Remembering_Displays,2020.1.2,Win32,60,1,1,0.50921,1,1,0.456635,0,3,3,5,1,Stimuli/testStimuliSquare/6u_s_9_2D.png,Stimuli/testStimuliSquare/6u_d_9_2D.png,1,1,,,,,,,,
,,,,,,,20,m,B,2020-04-19_16h29.51.171,Remembering_Displays,2020.1.2,Win32,60,9,1,0.440705,1,1,0.6728,0,4,4,2,1,Stimuli/testStimuliSquare/6u_s_8_2D.png,Stimuli/testStimuliSquare/6u_s_8_2D.png,0,9,,,,,,,,
,,,,,,,20,m,B,2020-04-19_16h29.51.171,Remembering_Displays,2020.1.2,Win32,60,9,1,0.688305,9,1,1.305735,0,5,5,18,1,Stimuli/testStimuliSquare/6u_s_10_s_2D.png,Stimuli/testStimuliSquare/6u_s_10_s_2D.png,0,9,,,,,,,,
,,,,,,,20,m,B,2020-04-19_16h29.51.171,Remembering_Displays,2020.1.2,Win32,60,9,1,0.444725,1,1,1.11857,0,6,6,10,1,Stimuli/testStimuliSquare/6u_s_12_2D.png,Stimuli/testStimuliSquare/6u_s_12_2D.png,0,9,,,,,,,,
,,,,,,,20,m,B,2020-04-19_16h29.51.171,Remembering_Displays,2020.1.2,Win32,60,1,1,0.643995,1,1,0.57602,0,7,7,21,1,Stimuli/testStimuliSquare/6u_s_11_s_2D.png,Stimuli/testStimuliSquare/6u_d_11_s_2D.png,1,1,,,,,,,,
,,,,,,,20,m,B,2020-04-19_16h29.51.171,Remembering_Displays,2020.1.2,Win32,60,9,0,0.99619,1,1,0.588205,0,8,8,15,1,Stimuli/testStimuliSquare/6u_s_8_s_2D.png,Stimuli/testStimuliSquare/6u_d_8_s_2D.png,1,1,,,,,,,,
,,,,,,,20,m,B,2020-04-19_16h29.51.171,Remembering_Displays,2020.1.2,Win32,60,9,1,0.78972,1,1,0.735005,0,9,9,12,1,Stimuli/testStimuliSquare/6u_s_7_s_2D.png,Stimuli/testStimuliSquare/6u_s_7_s_2D.png,0,9,,,,,,,,
,,,,,,,20,m,B,2020-04-19_16h29.51.171,Remembering_Displays,2020.1.2,Win32,60,1,1,0.637095,1,1,0.494105,0,10,10,11,1,Stimuli/testStimuliSquare/6u_s_12_2D.png,Stimuli/testStimuliSquare/6u_d_12_2D.png,1,1,,,,,,,,
,,,,,,,20,m,B,2020-04-19_16h29.51.171,Remembering_Displays,2020.1.2,Win32,60,1,1,0.556005,1,1,0.518725,0,11,11,17,1,Stimuli/testStimuliSquare/6u_s_9_s_2D.png,Stimuli/testStimuliSquare/6u_d_9_s_2D.png,1,1,,,,,,,,
,,,,,,,20,m,B,2020-04-19_16h29.51.171,Remembering_Displays,2020.1.2,Win32,60,1,1,0.563475,1,1,0.70059,0,12,12,23,1,Stimuli/testStimuliSquare/6u_s_12_s_2D.png,Stimuli/testStimuliSquare/6u_d_12_s_2D.png,1,1,,,,,,,,
,,,,,,,20,m,B,2020-04-19_16h29.51.171,Remembering_Displays,2020.1.2,Win32,60,9,1,0.456605,1,1,0.88978,0,13,13,16,1,Stimuli/testStimuliSquare/6u_s_9_s_2D.png,Stimuli/testStimuliSquare/6u_s_9_s_2D.png,0,9,,,,,,,,
,,,,,,,20,m,B,2020-04-19_16h29.51.171,Remembering_Displays,2020.1.2,Win32,60,9,1,0.639385,9,1,0.485255,0,14,14,8,1,Stimuli/testStimuliSquare/6u_s_11_2D.png,Stimuli/testStimuliSquare/6u_s_11_2D.png,0,9,,,,,,,,
,,,,,,,20,m,B,2020-04-19_16h29.51.171,Remembering_Displays,2020.1.2,Win32,60,1,1,0.82749,9,1,0.41807,0,15,15,3,1,Stimuli/testStimuliSquare/6u_s_8_2D.png,Stimuli/testStimuliSquare/6u_d_8_2D.png,1,1,,,,,,,,
,,,,,,,20,m,B,2020-04-19_16h29.51.171,Remembering_Displays,2020.1.2,Win32,60,1,1,0.55132,1,1,0.63554,0,16,16,19,1,Stimuli/testStimuliSquare/6u_s_10_s_2D.png,Stimuli/testStimuliSquare/6u_d_10_s_2D.png,1,1,,,,,,,,
,,,,,,,20,m,B,2020-04-19_16h29.51.171,Remembering_Displays,2020.1.2,Win32,60,9,1,0.396095,1,1,0.42916,0,17,17,4,1,Stimuli/testStimuliSquare/6u_s_9_2D.png,Stimuli/testStimuliSquare/6u_s_9_2D.png,0,9,,,,,,,,
,,,,,,,20,m,B,2020-04-19_16h29.51.171,Remembering_Displays,2020.1.2,Win32,60,9,1,0.3727,1,1,0.26825,0,18,18,6,1,Stimuli/testStimuliSquare/6u_s_10_2D.png,Stimuli/testStimuliSquare/6u_s_10_2D.png,0,9,,,,,,,,
,,,,,,,20,m,B,2020-04-19_16h29.51.171,Remembering_Displays,2020.1.2,Win32,60,9,0,0.49537,9,1,0.534985,0,19,19,7,1,Stimuli/testStimuliSquare/6u_s_10_2D.png,Stimuli/testStimuliSquare/6u_d_10_2D.png,1,1,,,,,,,,
,,,,,,,20,m,B,2020-04-19_16h29.51.171,Remembering_Displays,2020.1.2,Win32,60,1,1,0.504515,1,1,1.602775,0,20,20,13,1,Stimuli/testStimuliSquare/6u_s_7_s_2D.png,Stimuli/testStimuliSquare/6u_d_7_s_2D.png,1,1,,,,,,,,
,,,,,,,20,m,B,2020-04-19_16h29.51.171,Remembering_Displays,2020.1.2,Win32,60,9,1,0.52781,9,1,0.585305,0,21,21,20,1,Stimuli/testStimuliSquare/6u_s_11_s_2D.png,Stimuli/testStimuliSquare/6u_s_11_s_2D.png,0,9,,,,,,,,
,,,,,,,20,m,B,2020-04-19_16h29.51.171,Remembering_Displays,2020.1.2,Win32,60,1,1,0.42275,9,1,0.56874,0,22,22,1,1,Stimuli/testStimuliSquare/6u_s_7_2D.png,Stimuli/testStimuliSquare/6u_d_7_2D.png,1,1,,,,,,,,
,,,,,,,20,m,B,2020-04-19_16h29.51.171,Remembering_Displays,2020.1.2,Win32,60,9,1,0.457785,1,1,0.63497,0,23,23,22,1,Stimuli/testStimuliSquare/6u_s_12_s_2D.png,Stimuli/testStimuliSquare/6u_s_12_s_2D.png,0,9,,,,,,,,
,,,,,,,20,m,B,2020-04-19_16h29.51.171,Remembering_Displays,2020.1.2,Win32,60,,,,,,,,,,,,,,,,0,7,7,7,1,Stimuli/trialListSquares2.xlsx,Instructions/instr_17.png,Progress: 144 of 192 trials completed
,,,,,,,20,m,B,2020-04-19_16h29.51.171,Remembering_Displays,2020.1.2,Win32,60,1,1,0.3761,9,1,0.74204,0,0,0,15,1,Stimuli/testStimuliCube/6u_s_20_s.png,Stimuli/testStimuliCube/6u_d_20_s.png,1,1,,,,,,,,
,,,,,,,20,m,B,2020-04-19_16h29.51.171,Remembering_Displays,2020.1.2,Win32,60,1,1,0.910315,9,1,0.42251,0,1,1,23,1,Stimuli/testStimuliCube/6u_s_24_s.png,Stimuli/testStimuliCube/6u_d_24_s.png,1,1,,,,,,,,
,,,,,,,20,m,B,2020-04-19_16h29.51.171,Remembering_Displays,2020.1.2,Win32,60,9,1,0.392015,1,1,0.59033,0,2,2,0,1,Stimuli/testStimuliCube/6u_s_19.png,Stimuli/testStimuliCube/6u_s_19.png,0,9,,,,,,,,
,,,,,,,20,m,B,2020-04-19_16h29.51.171,Remembering_Displays,2020.1.2,Win32,60,9,1,0.376495,9,1,0.788205,0,3,3,6,1,Stimuli/testStimuliCube/6u_s_22.png,Stimuli/testStimuliCube/6u_s_22.png,0,9,,,,,,,,
,,,,,,,20,m,B,2020-04-19_16h29.51.171,Remembering_Displays,2020.1.2,Win32,60,9,1,0.33845,1,1,0.65816,0,4,4,20,1,Stimuli/testStimuliCube/6u_s_23_s.png,Stimuli/testStimuliCube/6u_s_23_s.png,0,9,,,,,,,,
,,,,,,,20,m,B,2020-04-19_16h29.51.171,Remembering_Displays,2020.1.2,Win32,60,1,1,0.47882,9,1,0.602385,0,5,5,19,1,Stimuli/testStimuliCube/6u_s_22_s.png,Stimuli/testStimuliCube/6u_d_22_s.png,1,1,,,,,,,,
,,,,,,,20,m,B,2020-04-19_16h29.51.171,Remembering_Displays,2020.1.2,Win32,60,1,0,0.741445,9,1,0.426165,0,6,6,4,1,Stimuli/testStimuliCube/6u_s_21.png,Stimuli/testStimuliCube/6u_s_21.png,0,9,,,,,,,,
,,,,,,,20,m,B,2020-04-19_16h29.51.171,Remembering_Displays,2020.1.2,Win32,60,1,1,0.37212,1,1,0.679285,0,7,7,5,1,Stimuli/testStimuliCube/6u_s_21.png,Stimuli/testStimuliCube/6u_d_21.png,1,1,,,,,,,,
,,,,,,,20,m,B,2020-04-19_16h29.51.171,Remembering_Displays,2020.1.2,Win32,60,9,1,0.585135,9,1,0.57129,0,8,8,16,1,Stimuli/testStimuliCube/6u_s_21_s.png,Stimuli/testStimuliCube/6u_s_21_s.png,0,9,,,,,,,,
,,,,,,,20,m,B,2020-04-19_16h29.51.171,Remembering_Displays,2020.1.2,Win32,60,9,1,0.47633,1,1,0.58756,0,9,9,22,1,Stimuli/testStimuliCube/6u_s_24_s.png,Stimuli/testStimuliCube/6u_s_24_s.png,0,9,,,,,,,,
,,,,,,,20,m,B,2020-04-19_16h29.51.171,Remembering_Displays,2020.1.2,Win32,60,1,1,0.53656,9,1,0.418525,0,10,10,11,1,Stimuli/testStimuliCube/6u_s_24.png,Stimuli/testStimuliCube/6u_d_24.png,1,1,,,,,,,,
,,,,,,,20,m,B,2020-04-19_16h29.51.171,Remembering_Displays,2020.1.2,Win32,60,9,1,0.35959,1,1,0.302015,0,11,11,2,1,Stimuli/testStimuliCube/6u_s_20.png,Stimuli/testStimuliCube/6u_s_20.png,0,9,,,,,,,,
,,,,,,,20,m,B,2020-04-19_16h29.51.171,Remembering_Displays,2020.1.2,Win32,60,1,1,0.30365,1,1,0.620395,0,12,12,21,1,Stimuli/testStimuliCube/6u_s_23_s.png,Stimuli/testStimuliCube/6u_d_23_s.png,1,1,,,,,,,,
,,,,,,,20,m,B,2020-04-19_16h29.51.171,Remembering_Displays,2020.1.2,Win32,60,1,1,0.426625,9,1,0.45204,0,13,13,1,1,Stimuli/testStimuliCube/6u_s_19.png,Stimuli/testStimuliCube/6u_d_19.png,1,1,,,,,,,,
,,,,,,,20,m,B,2020-04-19_16h29.51.171,Remembering_Displays,2020.1.2,Win32,60,1,1,0.61359,1,1,0.842235,0,14,14,17,1,Stimuli/testStimuliCube/6u_s_21_s.png,Stimuli/testStimuliCube/6u_d_21_s.png,1,1,,,,,,,,
,,,,,,,20,m,B,2020-04-19_16h29.51.171,Remembering_Displays,2020.1.2,Win32,60,1,1,0.45378,9,1,1.15429,0,15,15,3,1,Stimuli/testStimuliCube/6u_s_20.png,Stimuli/testStimuliCube/6u_d_20.png,1,1,,,,,,,,
,,,,,,,20,m,B,2020-04-19_16h29.51.171,Remembering_Displays,2020.1.2,Win32,60,9,1,0.503625,9,1,0.439025,0,16,16,8,1,Stimuli/testStimuliCube/6u_s_23.png,Stimuli/testStimuliCube/6u_s_23.png,0,9,,,,,,,,
,,,,,,,20,m,B,2020-04-19_16h29.51.171,Remembering_Displays,2020.1.2,Win32,60,9,1,0.40554,9,1,1.362645,0,17,17,10,1,Stimuli/testStimuliCube/6u_s_24.png,Stimuli/testStimuliCube/6u_s_24.png,0,9,,,,,,,,
,,,,,,,20,m,B,2020-04-19_16h29.51.171,Remembering_Displays,2020.1.2,Win32,60,1,1,0.488245,9,1,0.421925,0,18,18,7,1,Stimuli/testStimuliCube/6u_s_22.png,Stimuli/testStimuliCube/6u_d_22.png,1,1,,,,,,,,
,,,,,,,20,m,B,2020-04-19_16h29.51.171,Remembering_Displays,2020.1.2,Win32,60,9,1,0.48498,1,1,0.651695,0,19,19,12,1,Stimuli/testStimuliCube/6u_s_19_s.png,Stimuli/testStimuliCube/6u_s_19_s.png,0,9,,,,,,,,
,,,,,,,20,m,B,2020-04-19_16h29.51.171,Remembering_Displays,2020.1.2,Win32,60,1,1,0.52114,9,1,0.471625,0,20,20,13,1,Stimuli/testStimuliCube/6u_s_19_s.png,Stimuli/testStimuliCube/6u_d_19_s.png,1,1,,,,,,,,
,,,,,,,20,m,B,2020-04-19_16h29.51.171,Remembering_Displays,2020.1.2,Win32,60,9,1,0.713735,9,0,0.85962,0,21,21,18,1,Stimuli/testStimuliCube/6u_s_22_s.png,Stimuli/testStimuliCube/6u_s_22_s.png,0,9,,,,,,,,
,,,,,,,20,m,B,2020-04-19_16h29.51.171,Remembering_Displays,2020.1.2,Win32,60,9,1,0.445365,9,1,0.285915,0,22,22,14,1,Stimuli/testStimuliCube/6u_s_20_s.png,Stimuli/testStimuliCube/6u_s_20_s.png,0,9,,,,,,,,
,,,,,,,20,m,B,2020-04-19_16h29.51.171,Remembering_Displays,2020.1.2,Win32,60,1,1,0.522525,9,1,0.618585,0,23,23,9,1,Stimuli/testStimuliCube/6u_s_23.png,Stimuli/testStimuliCube/6u_d_23.png,1,1,,,,,,,,
,,,,,,,20,m,B,2020-04-19_16h29.51.171,Remembering_Displays,2020.1.2,Win32,60,,,,,,,,,,,,,,,,0,8,8,8,1,Stimuli/trialListCubes4.xlsx,Instructions/instr_18.png,Progress: 168 of 192 trials completed
,,,,,,,20,m,B,2020-04-19_16h29.51.171,Remembering_Displays,2020.1.2,Win32,60,9,1,0.42899,1,1,0.30401,0,0,0,10,1,Stimuli/testStimuliSquare/6u_s_6_2D.png,Stimuli/testStimuliSquare/6u_s_6_2D.png,0,9,,,,,,,,
,,,,,,,20,m,B,2020-04-19_16h29.51.171,Remembering_Displays,2020.1.2,Win32,60,9,1,0.373315,1,1,0.40164,0,1,1,6,1,Stimuli/testStimuliSquare/6u_s_4_2D.png,Stimuli/testStimuliSquare/6u_s_4_2D.png,0,9,,,,,,,,
,,,,,,,20,m,B,2020-04-19_16h29.51.171,Remembering_Displays,2020.1.2,Win32,60,1,1,0.777445,9,1,0.486275,0,2,2,11,1,Stimuli/testStimuliSquare/6u_s_6_2D.png,Stimuli/testStimuliSquare/6u_d_6_2D.png,1,1,,,,,,,,
,,,,,,,20,m,B,2020-04-19_16h29.51.171,Remembering_Displays,2020.1.2,Win32,60,9,1,0.426665,1,1,0.47674,0,3,3,22,1,Stimuli/testStimuliSquare/6u_s_6_s_2D.png,Stimuli/testStimuliSquare/6u_s_6_s_2D.png,0,9,,,,,,,,
,,,,,,,20,m,B,2020-04-19_16h29.51.171,Remembering_Displays,2020.1.2,Win32,60,1,1,0.44955,9,1,0.37123,0,4,4,5,1,Stimuli/testStimuliSquare/6u_s_3_2D.png,Stimuli/testStimuliSquare/6u_d_3_2D.png,1,1,,,,,,,,
,,,,,,,20,m,B,2020-04-19_16h29.51.171,Remembering_Displays,2020.1.2,Win32,60,9,1,0.443615,1,1,0.57167,0,5,5,4,1,Stimuli/testStimuliSquare/6u_s_3_2D.png,Stimuli/testStimuliSquare/6u_s_3_2D.png,0,9,,,,,,,,
,,,,,,,20,m,B,2020-04-19_16h29.51.171,Remembering_Displays,2020.1.2,Win32,60,9,0,1.079555,1,1,0.85177,0,6,6,9,1,Stimuli/testStimuliSquare/6u_s_5_2D.png,Stimuli/testStimuliSquare/6u_d_5_2D.png,1,1,,,,,,,,
,,,,,,,20,m,B,2020-04-19_16h29.51.171,Remembering_Displays,2020.1.2,Win32,60,9,1,0.652085,9,1,0.401605,0,7,7,16,1,Stimuli/testStimuliSquare/6u_s_3_s_2D.png,Stimuli/testStimuliSquare/6u_s_3_s_2D.png,0,9,,,,,,,,
,,,,,,,20,m,B,2020-04-19_16h29.51.171,Remembering_Displays,2020.1.2,Win32,60,1,1,0.412855,1,1,0.726795,0,8,8,3,1,Stimuli/testStimuliSquare/6u_s_2_2D.png,Stimuli/testStimuliSquare/6u_d_2_2D.png,1,1,,,,,,,,
,,,,,,,20,m,B,2020-04-19_16h29.51.171,Remembering_Displays,2020.1.2,Win32,60,9,1,0.818035,9,1,0.802,0,9,9,0,1,Stimuli/testStimuliSquare/6u_s_1_2D.png,Stimuli/testStimuliSquare/6u_s_1_2D.png,0,9,,,,,,,,
,,,,,,,20,m,B,2020-04-19_16h29.51.171,Remembering_Displays,2020.1.2,Win32,60,1,0,0.46806,9,1,0.51856,0,10,10,20,1,Stimuli/testStimuliSquare/6u_s_5_s_2D.png,Stimuli/testStimuliSquare/6u_s_5_s_2D.png,0,9,,,,,,,,
,,,,,,,20,m,B,2020-04-19_16h29.51.171,Remembering_Displays,2020.1.2,Win32,60,1,1,0.609425,1,1,0.837885,0,11,11,19,1,Stimuli/testStimuliSquare/6u_s_4_s_2D.png,Stimuli/testStimuliSquare/6u_d_4_s_2D.png,1,1,,,,,,,,
,,,,,,,20,m,B,2020-04-19_16h29.51.171,Remembering_Displays,2020.1.2,Win32,60,9,1,0.51007,9,1,0.75527,0,12,12,8,1,Stimuli/testStimuliSquare/6u_s_5_2D.png,Stimuli/testStimuliSquare/6u_s_5_2D.png,0,9,,,,,,,,
,,,,,,,20,m,B,2020-04-19_16h29.51.171,Remembering_Displays,2020.1.2,Win32,60,1,1,0.61071,9,1,0.509035,0,13,13,15,1,Stimuli/testStimuliSquare/6u_s_2_s_2D.png,Stimuli/testStimuliSquare/6u_d_2_s_2D.png,1,1,,,,,,,,
,,,,,,,20,m,B,2020-04-19_16h29.51.171,Remembering_Displays,2020.1.2,Win32,60,9,1,0.55564,1,1,0.50384,0,14,14,14,1,Stimuli/testStimuliSquare/6u_s_2_s_2D.png,Stimuli/testStimuliSquare/6u_s_2_s_2D.png,0,9,,,,,,,,
,,,,,,,20,m,B,2020-04-19_16h29.51.171,Remembering_Displays,2020.1.2,Win32,60,9,1,0.358405,1,1,0.425665,0,15,15,12,1,Stimuli/testStimuliSquare/6u_s_1_s_2D.png,Stimuli/testStimuliSquare/6u_s_1_s_2D.png,0,9,,,,,,,,
,,,,,,,20,m,B,2020-04-19_16h29.51.171,Remembering_Displays,2020.1.2,Win32,60,1,1,0.545075,1,1,0.473995,0,16,16,7,1,Stimuli/testStimuliSquare/6u_s_4_2D.png,Stimuli/testStimuliSquare/6u_d_4_2D.png,1,1,,,,,,,,
,,,,,,,20,m,B,2020-04-19_16h29.51.171,Remembering_Displays,2020.1.2,Win32,60,9,1,0.389315,9,0,0.08502,0,17,17,18,1,Stimuli/testStimuliSquare/6u_s_4_s_2D.png,Stimuli/testStimuliSquare/6u_s_4_s_2D.png,0,9,,,,,,,,
,,,,,,,20,m,B,2020-04-19_16h29.51.171,Remembering_Displays,2020.1.2,Win32,60,9,0,0.493175,1,1,0.72167,0,18,18,13,1,Stimuli/testStimuliSquare/6u_s_1_s_2D.png,Stimuli/testStimuliSquare/6u_d_1_s_2D.png,1,1,,,,,,,,
,,,,,,,20,m,B,2020-04-19_16h29.51.171,Remembering_Displays,2020.1.2,Win32,60,1,1,0.49369,1,0,0.544595,0,19,19,1,1,Stimuli/testStimuliSquare/6u_s_1_2D.png,Stimuli/testStimuliSquare/6u_d_1_2D.png,1,1,,,,,,,,
,,,,,,,20,m,B,2020-04-19_16h29.51.171,Remembering_Displays,2020.1.2,Win32,60,9,1,0.68283,1,1,0.58509,0,20,20,2,1,Stimuli/testStimuliSquare/6u_s_2_2D.png,Stimuli/testStimuliSquare/6u_s_2_2D.png,0,9,,,,,,,,
,,,,,,,20,m,B,2020-04-19_16h29.51.171,Remembering_Displays,2020.1.2,Win32,60,1,1,0.45832,1,1,0.50096,0,21,21,17,1,Stimuli/testStimuliSquare/6u_s_3_s_2D.png,Stimuli/testStimuliSquare/6u_d_3_s_2D.png,1,1,,,,,,,,
,,,,,,,20,m,B,2020-04-19_16h29.51.171,Remembering_Displays,2020.1.2,Win32,60,9,0,0.376255,1,1,0.51831,0,22,22,21,1,Stimuli/testStimuliSquare/6u_s_5_s_2D.png,Stimuli/testStimuliSquare/6u_d_5_s_2D.png,1,1,,,,,,,,
,,,,,,,20,m,B,2020-04-19_16h29.51.171,Remembering_Displays,2020.1.2,Win32,60,1,1,0.51415,9,1,0.57184,0,23,23,23,1,Stimuli/testStimuliSquare/6u_s_6_s_2D.png,Stimuli/testStimuliSquare/6u_d_6_s_2D.png,1,1,,,,,,,,