instr_Loop.thisRepN,instr_Loop.thisTrialN,instr_Loop.thisN,instr_Loop.thisIndex,instr_Loop.ran,instructionImage,time,age,sex (female/male),order,date,expName,psychopyVersion,OS,frameRate,struc_judge_respond.keys,struc_judge_respond.corr,dual_respond.keys,dual_respond.corr,dual_respond.rt,trials.thisRepN,trials.thisTrialN,trials.thisN,trials.thisIndex,trials.ran,stim1,stim2,isAnyChange,corrAns,struc_judge_respond.rt,selectBlock.thisRepN,selectBlock.thisTrialN,selectBlock.thisN,selectBlock.thisIndex,selectBlock.ran,condsFile,condsImage,remaining
0,0,0,0,1,Instructions/instr_1.png,5,21,female,A,2020-04-26_22h42.10.058,Remembering_Displays,2020.1.2,MacIntel,60,,,,,,,,,,,,,,,,,,,,,,,
0,1,1,1,1,Instructions/instr_2.png,3,21,female,A,2020-04-26_22h42.10.058,Remembering_Displays,2020.1.2,MacIntel,60,,,,,,,,,,,,,,,,,,,,,,,
0,2,2,2,1,Instructions/instr_3.png,5,21,female,A,2020-04-26_22h42.10.058,Remembering_Displays,2020.1.2,MacIntel,60,,,,,,,,,,,,,,,,,,,,,,,
0,3,3,3,1,Instructions/instr_4.png,1,21,female,A,2020-04-26_22h42.10.058,Remembering_Displays,2020.1.2,MacIntel,60,,,,,,,,,,,,,,,,,,,,,,,
0,4,4,4,1,Instructions/instr_5.png,1,21,female,A,2020-04-26_22h42.10.058,Remembering_Displays,2020.1.2,MacIntel,60,,,,,,,,,,,,,,,,,,,,,,,
0,5,5,5,1,Instructions/instr_6.png,1,21,female,A,2020-04-26_22h42.10.058,Remembering_Displays,2020.1.2,MacIntel,60,,,,,,,,,,,,,,,,,,,,,,,
0,6,6,6,1,Instructions/instr_7.png,1,21,female,A,2020-04-26_22h42.10.058,Remembering_Displays,2020.1.2,MacIntel,60,,,,,,,,,,,,,,,,,,,,,,,
0,7,7,7,1,Instructions/instr_8.png,3,21,female,A,2020-04-26_22h42.10.058,Remembering_Displays,2020.1.2,MacIntel,60,,,,,,,,,,,,,,,,,,,,,,,
0,8,8,8,1,Instructions/instr_9.png,3,21,female,A,2020-04-26_22h42.10.058,Remembering_Displays,2020.1.2,MacIntel,60,,,,,,,,,,,,,,,,,,,,,,,
0,9,9,9,1,Instructions/instr_10.png,3,21,female,A,2020-04-26_22h42.10.058,Remembering_Displays,2020.1.2,MacIntel,60,,,,,,,,,,,,,,,,,,,,,,,
0,10,10,10,1,Instructions/instr_11.png,3,21,female,A,2020-04-26_22h42.10.058,Remembering_Displays,2020.1.2,MacIntel,60,,,,,,,,,,,,,,,,,,,,,,,
0,11,11,11,1,Instructions/instr_12.png,3,21,female,A,2020-04-26_22h42.10.058,Remembering_Displays,2020.1.2,MacIntel,60,,,,,,,,,,,,,,,,,,,,,,,
0,12,12,12,1,Instructions/instr_13.png,3,21,female,A,2020-04-26_22h42.10.058,Remembering_Displays,2020.1.2,MacIntel,60,,,,,,,,,,,,,,,,,,,,,,,
0,13,13,13,1,Instructions/instr_14.png,3,21,female,A,2020-04-26_22h42.10.058,Remembering_Displays,2020.1.2,MacIntel,60,,,,,,,,,,,,,,,,,,,,,,,
0,14,14,14,1,Instructions/instr_15.png,3,21,female,A,2020-04-26_22h42.10.058,Remembering_Displays,2020.1.2,MacIntel,60,,,,,,,,,,,,,,,,,,,,,,,
,,,,,,,21,female,A,2020-04-26_22h42.10.058,Remembering_Displays,2020.1.2,MacIntel,60,,0,9,1,10.603345,0,0,0,0,1,Stimuli/practiceStimuliSquare/practice1_s.png,Stimuli/practiceStimuliSquare/practice1_s.png,0,9,,,,,,,,,
,,,,,,,21,female,A,2020-04-26_22h42.10.058,Remembering_Displays,2020.1.2,MacIntel,60,9,1,9,1,1.398805,0,1,1,2,1,Stimuli/practiceStimuliSquare/practice3_s.png,Stimuli/practiceStimuliSquare/practice3_s.png,0,9,1.041115,,,,,,,,
,,,,,,,21,female,A,2020-04-26_22h42.10.058,Remembering_Displays,2020.1.2,MacIntel,60,9,0,9,1,1.803355,0,2,2,3,1,Stimuli/practiceStimuliSquare/practice4_s.png,Stimuli/practiceStimuliSquare/practice4_d.png,1,1,0.968635,,,,,,,,
,,,,,,,21,female,A,2020-04-26_22h42.10.058,Remembering_Displays,2020.1.2,MacIntel,60,1,1,1,1,1.765845,0,3,3,1,1,Stimuli/practiceStimuliSquare/practice2_s.png,Stimuli/practiceStimuliSquare/practice2_d.png,1,1,0.765955,,,,,,,,
,,,,,,,21,female,A,2020-04-26_22h42.10.058,Remembering_Displays,2020.1.2,MacIntel,60,,,,,,,,,,,,,,,,0,0,0,0,1,Stimuli/practiceListSquares.xlsx,Instructions/instr_19_practice.png,Practice trials completed
,,,,,,,21,female,A,2020-04-26_22h42.10.058,Remembering_Displays,2020.1.2,MacIntel,60,1,1,1,0,1.504285,0,0,0,7,1,Stimuli/testStimuliSquare/6u_s_4_2D.png,Stimuli/testStimuliSquare/6u_d_4_2D.png,1,1,1.063665,,,,,,,,
,,,,,,,21,female,A,2020-04-26_22h42.10.058,Remembering_Displays,2020.1.2,MacIntel,60,1,1,9,1,1.13449,0,1,1,3,1,Stimuli/testStimuliSquare/6u_s_2_2D.png,Stimuli/testStimuliSquare/6u_d_2_2D.png,1,1,1.14552,,,,,,,,
,,,,,,,21,female,A,2020-04-26_22h42.10.058,Remembering_Displays,2020.1.2,MacIntel,60,9,1,1,1,1.43274,0,2,2,16,1,Stimuli/testStimuliSquare/6u_s_3_s_2D.png,Stimuli/testStimuliSquare/6u_s_3_s_2D.png,0,9,1.13972,,,,,,,,
,,,,,,,21,female,A,2020-04-26_22h42.10.058,Remembering_Displays,2020.1.2,MacIntel,60,1,1,1,1,1.334185,0,3,3,17,1,Stimuli/testStimuliSquare/6u_s_3_s_2D.png,Stimuli/testStimuliSquare/6u_d_3_s_2D.png,1,1,1.136175,,,,,,,,
,,,,,,,21,female,A,2020-04-26_22h42.10.058,Remembering_Displays,2020.1.2,MacIntel,60,1,1,1,1,1.18386,0,4,4,5,1,Stimuli/testStimuliSquare/6u_s_3_2D.png,Stimuli/testStimuliSquare/6u_d_3_2D.png,1,1,0.938625,,,,,,,,
,,,,,,,21,female,A,2020-04-26_22h42.10.058,Remembering_Displays,2020.1.2,MacIntel,60,9,1,9,1,1.092505,0,5,5,8,1,Stimuli/testStimuliSquare/6u_s_5_2D.png,Stimuli/testStimuliSquare/6u_s_5_2D.png,0,9,0.95542,,,,,,,,
,,,,,,,21,female,A,2020-04-26_22h42.10.058,Remembering_Displays,2020.1.2,MacIntel,60,9,1,9,1,1.114305,0,6,6,0,1,Stimuli/testStimuliSquare/6u_s_1_2D.png,Stimuli/testStimuliSquare/6u_s_1_2D.png,0,9,0.875805,,,,,,,,
,,,,,,,21,female,A,2020-04-26_22h42.10.058,Remembering_Displays,2020.1.2,MacIntel,60,1,1,1,1,1.916485,0,7,7,19,1,Stimuli/testStimuliSquare/6u_s_4_s_2D.png,Stimuli/testStimuliSquare/6u_d_4_s_2D.png,1,1,1.23306,,,,,,,,
,,,,,,,21,female,A,2020-04-26_22h42.10.058,Remembering_Displays,2020.1.2,MacIntel,60,1,1,9,1,1.104375,0,8,8,21,1,Stimuli/testStimuliSquare/6u_s_5_s_2D.png,Stimuli/testStimuliSquare/6u_d_5_s_2D.png,1,1,1.030895,,,,,,,,
,,,,,,,21,female,A,2020-04-26_22h42.10.058,Remembering_Displays,2020.1.2,MacIntel,60,1,1,1,1,1.36826,0,9,9,9,1,Stimuli/testStimuliSquare/6u_s_5_2D.png,Stimuli/testStimuliSquare/6u_d_5_2D.png,1,1,1.03293,,,,,,,,
,,,,,,,21,female,A,2020-04-26_22h42.10.058,Remembering_Displays,2020.1.2,MacIntel,60,9,1,9,1,0.955955,0,10,10,2,1,Stimuli/testStimuliSquare/6u_s_2_2D.png,Stimuli/testStimuliSquare/6u_s_2_2D.png,0,9,1.077445,,,,,,,,
,,,,,,,21,female,A,2020-04-26_22h42.10.058,Remembering_Displays,2020.1.2,MacIntel,60,1,1,9,1,1.035915,0,11,11,23,1,Stimuli/testStimuliSquare/6u_s_6_s_2D.png,Stimuli/testStimuliSquare/6u_d_6_s_2D.png,1,1,1.212985,,,,,,,,
,,,,,,,21,female,A,2020-04-26_22h42.10.058,Remembering_Displays,2020.1.2,MacIntel,60,9,1,9,1,0.666395,0,12,12,20,1,Stimuli/testStimuliSquare/6u_s_5_s_2D.png,Stimuli/testStimuliSquare/6u_s_5_s_2D.png,0,9,1.173745,,,,,,,,
,,,,,,,21,female,A,2020-04-26_22h42.10.058,Remembering_Displays,2020.1.2,MacIntel,60,9,1,9,1,0.80623,0,13,13,10,1,Stimuli/testStimuliSquare/6u_s_6_2D.png,Stimuli/testStimuliSquare/6u_s_6_2D.png,0,9,1.11235,,,,,,,,
,,,,,,,21,female,A,2020-04-26_22h42.10.058,Remembering_Displays,2020.1.2,MacIntel,60,9,1,9,1,1.217235,0,14,14,4,1,Stimuli/testStimuliSquare/6u_s_3_2D.png,Stimuli/testStimuliSquare/6u_s_3_2D.png,0,9,0.878455,,,,,,,,
,,,,,,,21,female,A,2020-04-26_22h42.10.058,Remembering_Displays,2020.1.2,MacIntel,60,9,1,1,1,1.323595,0,15,15,22,1,Stimuli/testStimuliSquare/6u_s_6_s_2D.png,Stimuli/testStimuliSquare/6u_s_6_s_2D.png,0,9,1.14087,,,,,,,,
,,,,,,,21,female,A,2020-04-26_22h42.10.058,Remembering_Displays,2020.1.2,MacIntel,60,9,1,9,0,1.29885,0,16,16,18,1,Stimuli/testStimuliSquare/6u_s_4_s_2D.png,Stimuli/testStimuliSquare/6u_s_4_s_2D.png,0,9,1.08971,,,,,,,,
,,,,,,,21,female,A,2020-04-26_22h42.10.058,Remembering_Displays,2020.1.2,MacIntel,60,1,0,9,1,0.8918,0,17,17,6,1,Stimuli/testStimuliSquare/6u_s_4_2D.png,Stimuli/testStimuliSquare/6u_s_4_2D.png,0,9,1.1714,,,,,,,,
,,,,,,,21,female,A,2020-04-26_22h42.10.058,Remembering_Displays,2020.1.2,MacIntel,60,,0,1,1,3.76687,0,18,18,15,1,Stimuli/testStimuliSquare/6u_s_2_s_2D.png,Stimuli/testStimuliSquare/6u_d_2_s_2D.png,1,1,,,,,,,,,
,,,,,,,21,female,A,2020-04-26_22h42.10.058,Remembering_Displays,2020.1.2,MacIntel,60,9,1,1,1,1.103945,0,19,19,14,1,Stimuli/testStimuliSquare/6u_s_2_s_2D.png,Stimuli/testStimuliSquare/6u_s_2_s_2D.png,0,9,1.241375,,,,,,,,
,,,,,,,21,female,A,2020-04-26_22h42.10.058,Remembering_Displays,2020.1.2,MacIntel,60,1,1,1,1,1.56864,0,20,20,13,1,Stimuli/testStimuliSquare/6u_s_1_s_2D.png,Stimuli/testStimuliSquare/6u_d_1_s_2D.png,1,1,0.813615,,,,,,,,
,,,,,,,21,female,A,2020-04-26_22h42.10.058,Remembering_Displays,2020.1.2,MacIntel,60,1,1,1,1,2.11723,0,21,21,1,1,Stimuli/testStimuliSquare/6u_s_1_2D.png,Stimuli/testStimuliSquare/6u_d_1_2D.png,1,1,0.81264,,,,,,,,
,,,,,,,21,female,A,2020-04-26_22h42.10.058,Remembering_Displays,2020.1.2,MacIntel,60,9,0,1,0,1.802315,0,22,22,11,1,Stimuli/testStimuliSquare/6u_s_6_2D.png,Stimuli/testStimuliSquare/6u_d_6_2D.png,1,1,1.097105,,,,,,,,
,,,,,,,21,female,A,2020-04-26_22h42.10.058,Remembering_Displays,2020.1.2,MacIntel,60,9,1,1,1,0.919,0,23,23,12,1,Stimuli/testStimuliSquare/6u_s_1_s_2D.png,Stimuli/testStimuliSquare/6u_s_1_s_2D.png,0,9,1.26465,,,,,,,,
,,,,,,,21,female,A,2020-04-26_22h42.10.058,Remembering_Displays,2020.1.2,MacIntel,60,,,,,,,,,,,,,,,,0,1,1,1,1,Stimuli/trialListSquares1.xlsx,Instructions/instr_17.png,Progress: 24 of 192 trials completed
,,,,,,,21,female,A,2020-04-26_22h42.10.058,Remembering_Displays,2020.1.2,MacIntel,60,1,1,9,1,1.101675,0,0,0,1,1,Stimuli/practiceStimuliCube/practice2_s.png,Stimuli/practiceStimuliCube/practice2_d.png,1,1,0.76861,,,,,,,,
,,,,,,,21,female,A,2020-04-26_22h42.10.058,Remembering_Displays,2020.1.2,MacIntel,60,9,0,9,0,1.966765,0,1,1,3,1,Stimuli/practiceStimuliCube/practice4_s.png,Stimuli/practiceStimuliCube/practice4_d.png,1,1,0.830215,,,,,,,,
,,,,,,,21,female,A,2020-04-26_22h42.10.058,Remembering_Displays,2020.1.2,MacIntel,60,9,1,9,1,1.009325,0,2,2,0,1,Stimuli/practiceStimuliCube/practice1_s.png,Stimuli/practiceStimuliCube/practice1_s.png,0,9,0.77542,,,,,,,,
,,,,,,,21,female,A,2020-04-26_22h42.10.058,Remembering_Displays,2020.1.2,MacIntel,60,9,1,1,1,0.687505,0,3,3,2,1,Stimuli/practiceStimuliCube/practice3_s.png,Stimuli/practiceStimuliCube/practice3_s.png,0,9,1.33057,,,,,,,,
,,,,,,,21,female,A,2020-04-26_22h42.10.058,Remembering_Displays,2020.1.2,MacIntel,60,,,,,,,,,,,,,,,,0,2,2,2,1,Stimuli/practiceListCubes.xlsx,Instructions/instr_20_practice.png,Practice trials completed
,,,,,,,21,female,A,2020-04-26_22h42.10.058,Remembering_Displays,2020.1.2,MacIntel,60,1,1,1,1,1.20508,0,0,0,13,1,Stimuli/testStimuliCube/6u_s_19_s.png,Stimuli/testStimuliCube/6u_d_19_s.png,1,1,1.097895,,,,,,,,
,,,,,,,21,female,A,2020-04-26_22h42.10.058,Remembering_Displays,2020.1.2,MacIntel,60,1,0,9,1,1.519455,0,1,1,22,1,Stimuli/testStimuliCube/6u_s_24_s.png,Stimuli/testStimuliCube/6u_s_24_s.png,0,9,0.725685,,,,,,,,
,,,,,,,21,female,A,2020-04-26_22h42.10.058,Remembering_Displays,2020.1.2,MacIntel,60,9,0,9,1,1.28757,0,2,2,21,1,Stimuli/testStimuliCube/6u_s_23_s.png,Stimuli/testStimuliCube/6u_d_23_s.png,1,1,1.33586,,,,,,,,
,,,,,,,21,female,A,2020-04-26_22h42.10.058,Remembering_Displays,2020.1.2,MacIntel,60,9,0,9,1,1.41335,0,3,3,9,1,Stimuli/testStimuliCube/6u_s_23.png,Stimuli/testStimuliCube/6u_d_23.png,1,1,1.031385,,,,,,,,
,,,,,,,21,female,A,2020-04-26_22h42.10.058,Remembering_Displays,2020.1.2,MacIntel,60,1,0,9,0,1.2947,0,4,4,20,1,Stimuli/testStimuliCube/6u_s_23_s.png,Stimuli/testStimuliCube/6u_s_23_s.png,0,9,1.174235,,,,,,,,
,,,,,,,21,female,A,2020-04-26_22h42.10.058,Remembering_Displays,2020.1.2,MacIntel,60,9,1,1,0,1.548595,0,5,5,14,1,Stimuli/testStimuliCube/6u_s_20_s.png,Stimuli/testStimuliCube/6u_s_20_s.png,0,9,1.23019,,,,,,,,
,,,,,,,21,female,A,2020-04-26_22h42.10.058,Remembering_Displays,2020.1.2,MacIntel,60,1,1,9,1,0.9521,0,6,6,15,1,Stimuli/testStimuliCube/6u_s_20_s.png,Stimuli/testStimuliCube/6u_d_20_s.png,1,1,0.899915,,,,,,,,
,,,,,,,21,female,A,2020-04-26_22h42.10.058,Remembering_Displays,2020.1.2,MacIntel,60,9,1,1,1,1.314835,0,7,7,8,1,Stimuli/testStimuliCube/6u_s_23.png,Stimuli/testStimuliCube/6u_s_23.png,0,9,1.423335,,,,,,,,
,,,,,,,21,female,A,2020-04-26_22h42.10.058,Remembering_Displays,2020.1.2,MacIntel,60,9,0,9,1,1.057055,0,8,8,5,1,Stimuli/testStimuliCube/6u_s_21.png,Stimuli/testStimuliCube/6u_d_21.png,1,1,1.13107,,,,,,,,
,,,,,,,21,female,A,2020-04-26_22h42.10.058,Remembering_Displays,2020.1.2,MacIntel,60,,0,1,1,1.339335,0,9,9,7,1,Stimuli/testStimuliCube/6u_s_22.png,Stimuli/testStimuliCube/6u_d_22.png,1,1,,,,,,,,,
,,,,,,,21,female,A,2020-04-26_22h42.10.058,Remembering_Displays,2020.1.2,MacIntel,60,1,1,9,1,1.453225,0,10,10,23,1,Stimuli/testStimuliCube/6u_s_24_s.png,Stimuli/testStimuliCube/6u_d_24_s.png,1,1,0.862345,,,,,,,,
,,,,,,,21,female,A,2020-04-26_22h42.10.058,Remembering_Displays,2020.1.2,MacIntel,60,9,1,1,0,1.800045,0,11,11,10,1,Stimuli/testStimuliCube/6u_s_24.png,Stimuli/testStimuliCube/6u_s_24.png,0,9,1.02346,,,,,,,,
,,,,,,,21,female,A,2020-04-26_22h42.10.058,Remembering_Displays,2020.1.2,MacIntel,60,9,1,9,1,0.937765,0,12,12,16,1,Stimuli/testStimuliCube/6u_s_21_s.png,Stimuli/testStimuliCube/6u_s_21_s.png,0,9,1.007175,,,,,,,,
,,,,,,,21,female,A,2020-04-26_22h42.10.058,Remembering_Displays,2020.1.2,MacIntel,60,1,0,9,1,3.04105,0,13,13,6,1,Stimuli/testStimuliCube/6u_s_22.png,Stimuli/testStimuliCube/6u_s_22.png,0,9,0.725835,,,,,,,,
,,,,,,,21,female,A,2020-04-26_22h42.10.058,Remembering_Displays,2020.1.2,MacIntel,60,1,1,1,1,1.26853,0,14,14,1,1,Stimuli/testStimuliCube/6u_s_19.png,Stimuli/testStimuliCube/6u_d_19.png,1,1,0.928285,,,,,,,,
,,,,,,,21,female,A,2020-04-26_22h42.10.058,Remembering_Displays,2020.1.2,MacIntel,60,9,1,9,1,0.84055,0,15,15,4,1,Stimuli/testStimuliCube/6u_s_21.png,Stimuli/testStimuliCube/6u_s_21.png,0,9,1.01436,,,,,,,,
,,,,,,,21,female,A,2020-04-26_22h42.10.058,Remembering_Displays,2020.1.2,MacIntel,60,9,1,1,1,1.145645,0,16,16,2,1,Stimuli/testStimuliCube/6u_s_20.png,Stimuli/testStimuliCube/6u_s_20.png,0,9,0.807175,,,,,,,,
,,,,,,,21,female,A,2020-04-26_22h42.10.058,Remembering_Displays,2020.1.2,MacIntel,60,1,0,9,1,0.83394,0,17,17,18,1,Stimuli/testStimuliCube/6u_s_22_s.png,Stimuli/testStimuliCube/6u_s_22_s.png,0,9,1.02024,,,,,,,,
,,,,,,,21,female,A,2020-04-26_22h42.10.058,Remembering_Displays,2020.1.2,MacIntel,60,1,1,1,1,2.03633,0,18,18,17,1,Stimuli/testStimuliCube/6u_s_21_s.png,Stimuli/testStimuliCube/6u_d_21_s.png,1,1,0.77496,,,,,,,,
,,,,,,,21,female,A,2020-04-26_22h42.10.058,Remembering_Displays,2020.1.2,MacIntel,60,1,1,9,1,0.88617,0,19,19,3,1,Stimuli/testStimuliCube/6u_s_20.png,Stimuli/testStimuliCube/6u_d_20.png,1,1,1.015815,,,,,,,,
,,,,,,,21,female,A,2020-04-26_22h42.10.058,Remembering_Displays,2020.1.2,MacIntel,60,1,1,1,1,2.686525,0,20,20,19,1,Stimuli/testStimuliCube/6u_s_22_s.png,Stimuli/testStimuliCube/6u_d_22_s.png,1,1,0.9033,,,,,,,,
,,,,,,,21,female,A,2020-04-26_22h42.10.058,Remembering_Displays,2020.1.2,MacIntel,60,9,1,9,1,0.685875,0,21,21,0,1,Stimuli/testStimuliCube/6u_s_19.png,Stimuli/testStimuliCube/6u_s_19.png,0,9,1.123405,,,,,,,,
,,,,,,,21,female,A,2020-04-26_22h42.10.058,Remembering_Displays,2020.1.2,MacIntel,60,9,1,1,1,0.63923,0,22,22,12,1,Stimuli/testStimuliCube/6u_s_19_s.png,Stimuli/testStimuliCube/6u_s_19_s.png,0,9,0.94092,,,,,,,,
,,,,,,,21,female,A,2020-04-26_22h42.10.058,Remembering_Displays,2020.1.2,MacIntel,60,1,1,1,1,1.06987,0,23,23,11,1,Stimuli/testStimuliCube/6u_s_24.png,Stimuli/testStimuliCube/6u_d_24.png,1,1,0.931015,,,,,,,,
,,,,,,,21,female,A,2020-04-26_22h42.10.058,Remembering_Displays,2020.1.2,MacIntel,60,,,,,,,,,,,,,,,,0,3,3,3,1,Stimuli/trialListCubes4.xlsx,Instructions/instr_18.png,Progress: 48 of 192 trials completed
,,,,,,,21,female,A,2020-04-26_22h42.10.058,Remembering_Displays,2020.1.2,MacIntel,60,9,1,9,1,0.8042,0,0,0,12,1,Stimuli/testStimuliSquare/6u_s_7_s_2D.png,Stimuli/testStimuliSquare/6u_s_7_s_2D.png,0,9,0.954235,,,,,,,,
,,,,,,,21,female,A,2020-04-26_22h42.10.058,Remembering_Displays,2020.1.2,MacIntel,60,9,1,9,1,0.917765,0,1,1,20,1,Stimuli/testStimuliSquare/6u_s_11_s_2D.png,Stimuli/testStimuliSquare/6u_s_11_s_2D.png,0,9,0.63849,,,,,,,,
,,,,,,,21,female,A,2020-04-26_22h42.10.058,Remembering_Displays,2020.1.2,MacIntel,60,1,1,9,1,0.822955,0,2,2,11,1,Stimuli/testStimuliSquare/6u_s_12_2D.png,Stimuli/testStimuliSquare/6u_d_12_2D.png,1,1,0.95847,,,,,,,,
,,,,,,,21,female,A,2020-04-26_22h42.10.058,Remembering_Displays,2020.1.2,MacIntel,60,9,1,9,1,0.668645,0,3,3,2,1,Stimuli/testStimuliSquare/6u_s_8_2D.png,Stimuli/testStimuliSquare/6u_s_8_2D.png,0,9,0.725655,,,,,,,,
,,,,,,,21,female,A,2020-04-26_22h42.10.058,Remembering_Displays,2020.1.2,MacIntel,60,1,1,1,1,0.96809,0,4,4,3,1,Stimuli/testStimuliSquare/6u_s_8_2D.png,Stimuli/testStimuliSquare/6u_d_8_2D.png,1,1,0.780895,,,,,,,,
,,,,,,,21,female,A,2020-04-26_22h42.10.058,Remembering_Displays,2020.1.2,MacIntel,60,1,1,9,1,1.986635,0,5,5,1,1,Stimuli/testStimuliSquare/6u_s_7_2D.png,Stimuli/testStimuliSquare/6u_d_7_2D.png,1,1,0.91422,,,,,,,,
,,,,,,,21,female,A,2020-04-26_22h42.10.058,Remembering_Displays,2020.1.2,MacIntel,60,9,1,9,1,0.859305,0,6,6,14,1,Stimuli/testStimuliSquare/6u_s_8_s_2D.png,Stimuli/testStimuliSquare/6u_s_8_s_2D.png,0,9,0.96086,,,,,,,,
,,,,,,,21,female,A,2020-04-26_22h42.10.058,Remembering_Displays,2020.1.2,MacIntel,60,1,1,1,1,0.95054,0,7,7,15,1,Stimuli/testStimuliSquare/6u_s_8_s_2D.png,Stimuli/testStimuliSquare/6u_d_8_s_2D.png,1,1,0.780655,,,,,,,,
,,,,,,,21,female,A,2020-04-26_22h42.10.058,Remembering_Displays,2020.1.2,MacIntel,60,1,1,9,1,0.77748,0,8,8,5,1,Stimuli/testStimuliSquare/6u_s_9_2D.png,Stimuli/testStimuliSquare/6u_d_9_2D.png,1,1,0.681295,,,,,,,,
,,,,,,,21,female,A,2020-04-26_22h42.10.058,Remembering_Displays,2020.1.2,MacIntel,60,9,1,9,1,1.290285,0,9,9,16,1,Stimuli/testStimuliSquare/6u_s_9_s_2D.png,Stimuli/testStimuliSquare/6u_s_9_s_2D.png,0,9,1.22925,,,,,,,,
,,,,,,,21,female,A,2020-04-26_22h42.10.058,Remembering_Displays,2020.1.2,MacIntel,60,9,1,1,1,0.835935,0,10,10,10,1,Stimuli/testStimuliSquare/6u_s_12_2D.png,Stimuli/testStimuliSquare/6u_s_12_2D.png,0,9,0.93765,,,,,,,,
,,,,,,,21,female,A,2020-04-26_22h42.10.058,Remembering_Displays,2020.1.2,MacIntel,60,,0,9,0,2.57435,0,11,11,0,1,Stimuli/testStimuliSquare/6u_s_7_2D.png,Stimuli/testStimuliSquare/6u_s_7_2D.png,0,9,,,,,,,,,
,,,,,,,21,female,A,2020-04-26_22h42.10.058,Remembering_Displays,2020.1.2,MacIntel,60,9,0,9,0,1.335235,0,12,12,17,1,Stimuli/testStimuliSquare/6u_s_9_s_2D.png,Stimuli/testStimuliSquare/6u_d_9_s_2D.png,1,1,0.96674,,,,,,,,
,,,,,,,21,female,A,2020-04-26_22h42.10.058,Remembering_Displays,2020.1.2,MacIntel,60,1,1,9,1,1.40266,0,13,13,19,1,Stimuli/testStimuliSquare/6u_s_10_s_2D.png,Stimuli/testStimuliSquare/6u_d_10_s_2D.png,1,1,1.27943,,,,,,,,
,,,,,,,21,female,A,2020-04-26_22h42.10.058,Remembering_Displays,2020.1.2,MacIntel,60,1,1,9,1,1.271805,0,14,14,9,1,Stimuli/testStimuliSquare/6u_s_11_2D.png,Stimuli/testStimuliSquare/6u_d_11_2D.png,1,1,1.011205,,,,,,,,
,,,,,,,21,female,A,2020-04-26_22h42.10.058,Remembering_Displays,2020.1.2,MacIntel,60,1,1,1,1,0.970645,0,15,15,23,1,Stimuli/testStimuliSquare/6u_s_12_s_2D.png,Stimuli/testStimuliSquare/6u_d_12_s_2D.png,1,1,0.946755,,,,,,,,
,,,,,,,21,female,A,2020-04-26_22h42.10.058,Remembering_Displays,2020.1.2,MacIntel,60,1,1,1,1,1.887645,0,16,16,7,1,Stimuli/testStimuliSquare/6u_s_10_2D.png,Stimuli/testStimuliSquare/6u_d_10_2D.png,1,1,0.80314,,,,,,,,
,,,,,,,21,female,A,2020-04-26_22h42.10.058,Remembering_Displays,2020.1.2,MacIntel,60,1,1,1,0,2.211375,0,17,17,13,1,Stimuli/testStimuliSquare/6u_s_7_s_2D.png,Stimuli/testStimuliSquare/6u_d_7_s_2D.png,1,1,0.815735,,,,,,,,
,,,,,,,21,female,A,2020-04-26_22h42.10.058,Remembering_Displays,2020.1.2,MacIntel,60,9,1,9,1,1.11212,0,18,18,4,1,Stimuli/testStimuliSquare/6u_s_9_2D.png,Stimuli/testStimuliSquare/6u_s_9_2D.png,0,9,1.097205,,,,,,,,
,,,,,,,21,female,A,2020-04-26_22h42.10.058,Remembering_Displays,2020.1.2,MacIntel,60,9,1,1,1,0.651845,0,19,19,8,1,Stimuli/testStimuliSquare/6u_s_11_2D.png,Stimuli/testStimuliSquare/6u_s_11_2D.png,0,9,0.76031,,,,,,,,
,,,,,,,21,female,A,2020-04-26_22h42.10.058,Remembering_Displays,2020.1.2,MacIntel,60,9,1,1,1,0.770605,0,20,20,22,1,Stimuli/testStimuliSquare/6u_s_12_s_2D.png,Stimuli/testStimuliSquare/6u_s_12_s_2D.png,0,9,0.992795,,,,,,,,
,,,,,,,21,female,A,2020-04-26_22h42.10.058,Remembering_Displays,2020.1.2,MacIntel,60,1,1,9,1,1.45394,0,21,21,21,1,Stimuli/testStimuliSquare/6u_s_11_s_2D.png,Stimuli/testStimuliSquare/6u_d_11_s_2D.png,1,1,0.90144,,,,,,,,
,,,,,,,21,female,A,2020-04-26_22h42.10.058,Remembering_Displays,2020.1.2,MacIntel,60,9,1,1,1,1.219725,0,22,22,6,1,Stimuli/testStimuliSquare/6u_s_10_2D.png,Stimuli/testStimuliSquare/6u_s_10_2D.png,0,9,0.7902,,,,,,,,
,,,,,,,21,female,A,2020-04-26_22h42.10.058,Remembering_Displays,2020.1.2,MacIntel,60,9,1,9,1,1.172825,0,23,23,18,1,Stimuli/testStimuliSquare/6u_s_10_s_2D.png,Stimuli/testStimuliSquare/6u_s_10_s_2D.png,0,9,0.94038,,,,,,,,
,,,,,,,21,female,A,2020-04-26_22h42.10.058,Remembering_Displays,2020.1.2,MacIntel,60,,,,,,,,,,,,,,,,0,4,4,4,1,Stimuli/trialListSquares2.xlsx,Instructions/instr_17.png,Progress: 72 of 192 trials completed
,,,,,,,21,female,A,2020-04-26_22h42.10.058,Remembering_Displays,2020.1.2,MacIntel,60,9,1,1,1,2.37948,0,0,0,18,1,Stimuli/testStimuliCube/6u_s_16_s.png,Stimuli/testStimuliCube/6u_s_16_s.png,0,9,0.925615,,,,,,,,
,,,,,,,21,female,A,2020-04-26_22h42.10.058,Remembering_Displays,2020.1.2,MacIntel,60,9,1,9,1,0.86892,0,1,1,16,1,Stimuli/testStimuliCube/6u_s_15_s.png,Stimuli/testStimuliCube/6u_s_15_s.png,0,9,0.984405,,,,,,,,
,,,,,,,21,female,A,2020-04-26_22h42.10.058,Remembering_Displays,2020.1.2,MacIntel,60,9,1,9,1,0.68548,0,2,2,6,1,Stimuli/testStimuliCube/6u_s_16.png,Stimuli/testStimuliCube/6u_s_16.png,0,9,1.021085,,,,,,,,
,,,,,,,21,female,A,2020-04-26_22h42.10.058,Remembering_Displays,2020.1.2,MacIntel,60,1,1,1,1,1.25974,0,3,3,9,1,Stimuli/testStimuliCube/6u_s_17.png,Stimuli/testStimuliCube/6u_d_17.png,1,1,0.59966,,,,,,,,
,,,,,,,21,female,A,2020-04-26_22h42.10.058,Remembering_Displays,2020.1.2,MacIntel,60,9,1,1,1,0.75523,0,4,4,4,1,Stimuli/testStimuliCube/6u_s_15.png,Stimuli/testStimuliCube/6u_s_15.png,0,9,0.6176,,,,,,,,
,,,,,,,21,female,A,2020-04-26_22h42.10.058,Remembering_Displays,2020.1.2,MacIntel,60,1,1,9,1,1.43597,0,5,5,21,1,Stimuli/testStimuliCube/6u_s_17_s.png,Stimuli/testStimuliCube/6u_d_17_s.png,1,1,0.588175,,,,,,,,
,,,,,,,21,female,A,2020-04-26_22h42.10.058,Remembering_Displays,2020.1.2,MacIntel,60,1,1,1,1,1.125775,0,6,6,3,1,Stimuli/testStimuliCube/6u_s_14.png,Stimuli/testStimuliCube/6u_d_14.png,1,1,0.77389,,,,,,,,
,,,,,,,21,female,A,2020-04-26_22h42.10.058,Remembering_Displays,2020.1.2,MacIntel,60,9,1,1,1,1.65383,0,7,7,8,1,Stimuli/testStimuliCube/6u_s_17.png,Stimuli/testStimuliCube/6u_s_17.png,0,9,1.120955,,,,,,,,
,,,,,,,21,female,A,2020-04-26_22h42.10.058,Remembering_Displays,2020.1.2,MacIntel,60,1,1,9,1,0.719565,0,8,8,17,1,Stimuli/testStimuliCube/6u_s_15_s.png,Stimuli/testStimuliCube/6u_d_15_s.png,1,1,0.740005,,,,,,,,
,,,,,,,21,female,A,2020-04-26_22h42.10.058,Remembering_Displays,2020.1.2,MacIntel,60,9,1,9,1,1.82135,0,9,9,20,1,Stimuli/testStimuliCube/6u_s_17_s.png,Stimuli/testStimuliCube/6u_s_17_s.png,0,9,0.739885,,,,,,,,
,,,,,,,21,female,A,2020-04-26_22h42.10.058,Remembering_Displays,2020.1.2,MacIntel,60,9,0,1,1,0.689515,0,10,10,13,1,Stimuli/testStimuliCube/6u_s_13_s.png,Stimuli/testStimuliCube/6u_d_13_s.png,1,1,0.788975,,,,,,,,
,,,,,,,21,female,A,2020-04-26_22h42.10.058,Remembering_Displays,2020.1.2,MacIntel,60,1,0,9,1,1.073715,0,11,11,2,1,Stimuli/testStimuliCube/6u_s_14.png,Stimuli/testStimuliCube/6u_s_14.png,0,9,0.92634,,,,,,,,
,,,,,,,21,female,A,2020-04-26_22h42.10.058,Remembering_Displays,2020.1.2,MacIntel,60,1,1,9,1,1.390145,0,12,12,7,1,Stimuli/testStimuliCube/6u_s_16.png,Stimuli/testStimuliCube/6u_d_16.png,1,1,0.954665,,,,,,,,
,,,,,,,21,female,A,2020-04-26_22h42.10.058,Remembering_Displays,2020.1.2,MacIntel,60,9,1,9,1,1.25929,0,13,13,12,1,Stimuli/testStimuliCube/6u_s_13_s.png,Stimuli/testStimuliCube/6u_s_13_s.png,0,9,0.826745,,,,,,,,
,,,,,,,21,female,A,2020-04-26_22h42.10.058,Remembering_Displays,2020.1.2,MacIntel,60,1,1,1,1,0.9183,0,14,14,1,1,Stimuli/testStimuliCube/6u_s_13.png,Stimuli/testStimuliCube/6u_d_13.png,1,1,0.898075,,,,,,,,
,,,,,,,21,female,A,2020-04-26_22h42.10.058,Remembering_Displays,2020.1.2,MacIntel,60,9,1,1,1,0.85884,0,15,15,0,1,Stimuli/testStimuliCube/6u_s_13.png,Stimuli/testStimuliCube/6u_s_13.png,0,9,0.647665,,,,,,,,
,,,,,,,21,female,A,2020-04-26_22h42.10.058,Remembering_Displays,2020.1.2,MacIntel,60,1,1,1,1,0.9984,0,16,16,15,1,Stimuli/testStimuliCube/6u_s_14_s.png,Stimuli/testStimuliCube/6u_d_14_s.png,1,1,0.700715,,,,,,,,
,,,,,,,21,female,A,2020-04-26_22h42.10.058,Remembering_Displays,2020.1.2,MacIntel,60,1,1,9,1,1.90338,0,17,17,19,1,Stimuli/testStimuliCube/6u_s_16_s.png,Stimuli/testStimuliCube/6u_d_16_s.png,1,1,0.60079,,,,,,,,
,,,,,,,21,female,A,2020-04-26_22h42.10.058,Remembering_Displays,2020.1.2,MacIntel,60,9,1,1,1,0.86192,0,18,18,10,1,Stimuli/testStimuliCube/6u_s_18.png,Stimuli/testStimuliCube/6u_s_18.png,0,9,0.777695,,,,,,,,
,,,,,,,21,female,A,2020-04-26_22h42.10.058,Remembering_Displays,2020.1.2,MacIntel,60,9,1,1,1,0.738675,0,19,19,14,1,Stimuli/testStimuliCube/6u_s_14_s.png,Stimuli/testStimuliCube/6u_s_14_s.png,0,9,0.730065,,,,,,,,
,,,,,,,21,female,A,2020-04-26_22h42.10.058,Remembering_Displays,2020.1.2,MacIntel,60,1,1,9,1,0.77013,0,20,20,23,1,Stimuli/testStimuliCube/6u_s_18_s.png,Stimuli/testStimuliCube/6u_d_18_s.png,1,1,0.768375,,,,,,,,
,,,,,,,21,female,A,2020-04-26_22h42.10.058,Remembering_Displays,2020.1.2,MacIntel,60,1,1,9,1,1.15293,0,21,21,5,1,Stimuli/testStimuliCube/6u_s_15.png,Stimuli/testStimuliCube/6u_d_15.png,1,1,0.599465,,,,,,,,
,,,,,,,21,female,A,2020-04-26_22h42.10.058,Remembering_Displays,2020.1.2,MacIntel,60,9,1,9,1,0.722955,0,22,22,22,1,Stimuli/testStimuliCube/6u_s_18_s.png,Stimuli/testStimuliCube/6u_s_18_s.png,0,9,0.91568,,,,,,,,
,,,,,,,21,female,A,2020-04-26_22h42.10.058,Remembering_Displays,2020.1.2,MacIntel,60,9,0,1,1,1.29517,0,23,23,11,1,Stimuli/testStimuliCube/6u_s_18.png,Stimuli/testStimuliCube/6u_d_18.png,1,1,1.15445,,,,,,,,
,,,,,,,21,female,A,2020-04-26_22h42.10.058,Remembering_Displays,2020.1.2,MacIntel,60,,,,,,,,,,,,,,,,0,5,5,5,1,Stimuli/trialListCubes3.xlsx,Instructions/instr_18.png,Progress: 96 of 192 trials completed
,,,,,,,21,female,A,2020-04-26_22h42.10.058,Remembering_Displays,2020.1.2,MacIntel,60,9,1,1,1,1.03598,0,0,0,10,1,Stimuli/testStimuliSquare/6u_s_18_2D.png,Stimuli/testStimuliSquare/6u_s_18_2D.png,0,9,0.64816,,,,,,,,
,,,,,,,21,female,A,2020-04-26_22h42.10.058,Remembering_Displays,2020.1.2,MacIntel,60,9,1,1,1,0.556465,0,1,1,8,1,Stimuli/testStimuliSquare/6u_s_17_2D.png,Stimuli/testStimuliSquare/6u_s_17_2D.png,0,9,0.724945,,,,,,,,
,,,,,,,21,female,A,2020-04-26_22h42.10.058,Remembering_Displays,2020.1.2,MacIntel,60,9,1,1,1,0.57016,0,2,2,12,1,Stimuli/testStimuliSquare/6u_s_13_s_2D.png,Stimuli/testStimuliSquare/6u_s_13_s_2D.png,0,9,0.778485,,,,,,,,
,,,,,,,21,female,A,2020-04-26_22h42.10.058,Remembering_Displays,2020.1.2,MacIntel,60,1,1,9,1,0.83733,0,3,3,15,1,Stimuli/testStimuliSquare/6u_s_14_s_2D.png,Stimuli/testStimuliSquare/6u_d_14_s_2D.png,1,1,0.58345,,,,,,,,
,,,,,,,21,female,A,2020-04-26_22h42.10.058,Remembering_Displays,2020.1.2,MacIntel,60,1,1,9,1,1.078205,0,4,4,9,1,Stimuli/testStimuliSquare/6u_s_17_2D.png,Stimuli/testStimuliSquare/6u_d_17_2D.png,1,1,0.59888,,,,,,,,
,,,,,,,21,female,A,2020-04-26_22h42.10.058,Remembering_Displays,2020.1.2,MacIntel,60,9,1,9,1,1.185895,0,5,5,6,1,Stimuli/testStimuliSquare/6u_s_16_2D.png,Stimuli/testStimuliSquare/6u_s_16_2D.png,0,9,0.67539,,,,,,,,
,,,,,,,21,female,A,2020-04-26_22h42.10.058,Remembering_Displays,2020.1.2,MacIntel,60,1,1,9,1,1.43926,0,6,6,7,1,Stimuli/testStimuliSquare/6u_s_16_2D.png,Stimuli/testStimuliSquare/6u_d_16_2D.png,1,1,0.628005,,,,,,,,
,,,,,,,21,female,A,2020-04-26_22h42.10.058,Remembering_Displays,2020.1.2,MacIntel,60,1,1,1,1,1.803625,0,7,7,19,1,Stimuli/testStimuliSquare/6u_s_16_s_2D.png,Stimuli/testStimuliSquare/6u_d_16_s_2D.png,1,1,0.68387,,,,,,,,
,,,,,,,21,female,A,2020-04-26_22h42.10.058,Remembering_Displays,2020.1.2,MacIntel,60,9,1,9,1,1.9704,0,8,8,4,1,Stimuli/testStimuliSquare/6u_s_15_2D.png,Stimuli/testStimuliSquare/6u_s_15_2D.png,0,9,0.68889,,,,,,,,
,,,,,,,21,female,A,2020-04-26_22h42.10.058,Remembering_Displays,2020.1.2,MacIntel,60,1,1,9,1,1.19455,0,9,9,17,1,Stimuli/testStimuliSquare/6u_s_15_s_2D.png,Stimuli/testStimuliSquare/6u_d_15_s_2D.png,1,1,0.65796,,,,,,,,
,,,,,,,21,female,A,2020-04-26_22h42.10.058,Remembering_Displays,2020.1.2,MacIntel,60,9,1,9,1,0.671355,0,10,10,14,1,Stimuli/testStimuliSquare/6u_s_14_s_2D.png,Stimuli/testStimuliSquare/6u_s_14_s_2D.png,0,9,0.67785,,,,,,,,
,,,,,,,21,female,A,2020-04-26_22h42.10.058,Remembering_Displays,2020.1.2,MacIntel,60,1,1,1,1,1.70967,0,11,11,21,1,Stimuli/testStimuliSquare/6u_s_17_s_2D.png,Stimuli/testStimuliSquare/6u_d_17_s_2D.png,1,1,0.60866,,,,,,,,
,,,,,,,21,female,A,2020-04-26_22h42.10.058,Remembering_Displays,2020.1.2,MacIntel,60,9,1,1,1,0.740485,0,12,12,16,1,Stimuli/testStimuliSquare/6u_s_15_s_2D.png,Stimuli/testStimuliSquare/6u_s_15_s_2D.png,0,9,0.692,,,,,,,,
,,,,,,,21,female,A,2020-04-26_22h42.10.058,Remembering_Displays,2020.1.2,MacIntel,60,1,1,1,1,0.953885,0,13,13,3,1,Stimuli/testStimuliSquare/6u_s_14_2D.png,Stimuli/testStimuliSquare/6u_d_14_2D.png,1,1,0.552645,,,,,,,,
,,,,,,,21,female,A,2020-04-26_22h42.10.058,Remembering_Displays,2020.1.2,MacIntel,60,9,1,9,1,0.683085,0,14,14,18,1,Stimuli/testStimuliSquare/6u_s_16_s_2D.png,Stimuli/testStimuliSquare/6u_s_16_s_2D.png,0,9,0.557885,,,,,,,,
,,,,,,,21,female,A,2020-04-26_22h42.10.058,Remembering_Displays,2020.1.2,MacIntel,60,9,1,9,1,1.387175,0,15,15,22,1,Stimuli/testStimuliSquare/6u_s_18_s_2D.png,Stimuli/testStimuliSquare/6u_s_18_s_2D.png,0,9,0.757005,,,,,,,,
,,,,,,,21,female,A,2020-04-26_22h42.10.058,Remembering_Displays,2020.1.2,MacIntel,60,1,1,9,0,2.36803,0,16,16,11,1,Stimuli/testStimuliSquare/6u_s_18_2D.png,Stimuli/testStimuliSquare/6u_d_18_2D.png,1,1,0.731205,,,,,,,,
,,,,,,,21,female,A,2020-04-26_22h42.10.058,Remembering_Displays,2020.1.2,MacIntel,60,9,1,1,1,1.24748,0,17,17,0,1,Stimuli/testStimuliSquare/6u_s_13_2D.png,Stimuli/testStimuliSquare/6u_s_13_2D.png,0,9,0.78897,,,,,,,,
,,,,,,,21,female,A,2020-04-26_22h42.10.058,Remembering_Displays,2020.1.2,MacIntel,60,1,1,1,1,1.08654,0,18,18,5,1,Stimuli/testStimuliSquare/6u_s_15_2D.png,Stimuli/testStimuliSquare/6u_d_15_2D.png,1,1,0.57657,,,,,,,,
,,,,,,,21,female,A,2020-04-26_22h42.10.058,Remembering_Displays,2020.1.2,MacIntel,60,1,1,1,0,2.08881,0,19,19,1,1,Stimuli/testStimuliSquare/6u_s_13_2D.png,Stimuli/testStimuliSquare/6u_d_13_2D.png,1,1,0.8846,,,,,,,,
,,,,,,,21,female,A,2020-04-26_22h42.10.058,Remembering_Displays,2020.1.2,MacIntel,60,1,0,9,1,0.99287,0,20,20,20,1,Stimuli/testStimuliSquare/6u_s_17_s_2D.png,Stimuli/testStimuliSquare/6u_s_17_s_2D.png,0,9,1.046825,,,,,,,,
,,,,,,,21,female,A,2020-04-26_22h42.10.058,Remembering_Displays,2020.1.2,MacIntel,60,1,1,9,1,1.222785,0,21,21,23,1,Stimuli/testStimuliSquare/6u_s_18_s_2D.png,Stimuli/testStimuliSquare/6u_d_18_s_2D.png,1,1,0.629945,,,,,,,,
,,,,,,,21,female,A,2020-04-26_22h42.10.058,Remembering_Displays,2020.1.2,MacIntel,60,,0,1,1,0.8842,0,22,22,13,1,Stimuli/testStimuliSquare/6u_s_13_s_2D.png,Stimuli/testStimuliSquare/6u_d_13_s_2D.png,1,1,,,,,,,,,
,,,,,,,21,female,A,2020-04-26_22h42.10.058,Remembering_Displays,2020.1.2,MacIntel,60,9,1,9,0,0.887445,0,23,23,2,1,Stimuli/testStimuliSquare/6u_s_14_2D.png,Stimuli/testStimuliSquare/6u_s_14_2D.png,0,9,0.8923,,,,,,,,
,,,,,,,21,female,A,2020-04-26_22h42.10.058,Remembering_Displays,2020.1.2,MacIntel,60,,,,,,,,,,,,,,,,0,6,6,6,1,Stimuli/trialListSquares3.xlsx,Instructions/instr_17.png,Progress: 120 of 192 trials completed
,,,,,,,21,female,A,2020-04-26_22h42.10.058,Remembering_Displays,2020.1.2,MacIntel,60,1,1,9,1,1.07179,0,0,0,21,1,Stimuli/testStimuliCube/6u_s_11_s.png,Stimuli/testStimuliCube/6u_d_11_s.png,1,1,0.79961,,,,,,,,
,,,,,,,21,female,A,2020-04-26_22h42.10.058,Remembering_Displays,2020.1.2,MacIntel,60,1,1,9,1,1.247875,0,1,1,19,1,Stimuli/testStimuliCube/6u_s_10_s.png,Stimuli/testStimuliCube/6u_d_10_s.png,1,1,0.664175,,,,,,,,
,,,,,,,21,female,A,2020-04-26_22h42.10.058,Remembering_Displays,2020.1.2,MacIntel,60,1,1,9,0,0.74077,0,2,2,15,1,Stimuli/testStimuliCube/6u_s_8_s.png,Stimuli/testStimuliCube/6u_d_8_s.png,1,1,0.56275,,,,,,,,
,,,,,,,21,female,A,2020-04-26_22h42.10.058,Remembering_Displays,2020.1.2,MacIntel,60,1,1,9,1,2.461345,0,3,3,23,1,Stimuli/testStimuliCube/6u_s_12_s.png,Stimuli/testStimuliCube/6u_d_12_s.png,1,1,0.63833,,,,,,,,
,,,,,,,21,female,A,2020-04-26_22h42.10.058,Remembering_Displays,2020.1.2,MacIntel,60,9,1,1,1,0.966815,0,4,4,8,1,Stimuli/testStimuliCube/6u_s_11.png,Stimuli/testStimuliCube/6u_s_11.png,0,9,0.819555,,,,,,,,
,,,,,,,21,female,A,2020-04-26_22h42.10.058,Remembering_Displays,2020.1.2,MacIntel,60,1,1,9,1,1.32964,0,5,5,7,1,Stimuli/testStimuliCube/6u_s_10.png,Stimuli/testStimuliCube/6u_d_10.png,1,1,0.79616,,,,,,,,
,,,,,,,21,female,A,2020-04-26_22h42.10.058,Remembering_Displays,2020.1.2,MacIntel,60,1,1,9,1,0.81164,0,6,6,13,1,Stimuli/testStimuliCube/6u_s_7_s.png,Stimuli/testStimuliCube/6u_d_7_s.png,1,1,0.54663,,,,,,,,
,,,,,,,21,female,A,2020-04-26_22h42.10.058,Remembering_Displays,2020.1.2,MacIntel,60,1,1,9,1,1.76553,0,7,7,17,1,Stimuli/testStimuliCube/6u_s_9_s.png,Stimuli/testStimuliCube/6u_d_9_s.png,1,1,0.680085,,,,,,,,
,,,,,,,21,female,A,2020-04-26_22h42.10.058,Remembering_Displays,2020.1.2,MacIntel,60,1,1,9,1,1.36175,0,8,8,1,1,Stimuli/testStimuliCube/6u_s_7.png,Stimuli/testStimuliCube/6u_d_7.png,1,1,0.521565,,,,,,,,
,,,,,,,21,female,A,2020-04-26_22h42.10.058,Remembering_Displays,2020.1.2,MacIntel,60,1,0,1,1,1.40554,0,9,9,18,1,Stimuli/testStimuliCube/6u_s_10_s.png,Stimuli/testStimuliCube/6u_s_10_s.png,0,9,0.774765,,,,,,,,
,,,,,,,21,female,A,2020-04-26_22h42.10.058,Remembering_Displays,2020.1.2,MacIntel,60,9,1,9,1,0.89301,0,10,10,4,1,Stimuli/testStimuliCube/6u_s_9.png,Stimuli/testStimuliCube/6u_s_9.png,0,9,1.137495,,,,,,,,
,,,,,,,21,female,A,2020-04-26_22h42.10.058,Remembering_Displays,2020.1.2,MacIntel,60,1,1,9,1,1.156525,0,11,11,9,1,Stimuli/testStimuliCube/6u_s_11.png,Stimuli/testStimuliCube/6u_d_11.png,1,1,0.546545,,,,,,,,
,,,,,,,21,female,A,2020-04-26_22h42.10.058,Remembering_Displays,2020.1.2,MacIntel,60,9,1,1,1,2.6019,0,12,12,20,1,Stimuli/testStimuliCube/6u_s_11_s.png,Stimuli/testStimuliCube/6u_s_11_s.png,0,9,0.696075,,,,,,,,
,,,,,,,21,female,A,2020-04-26_22h42.10.058,Remembering_Displays,2020.1.2,MacIntel,60,9,1,1,1,1.255915,0,13,13,0,1,Stimuli/testStimuliCube/6u_s_7.png,Stimuli/testStimuliCube/6u_s_7.png,0,9,0.788305,,,,,,,,
,,,,,,,21,female,A,2020-04-26_22h42.10.058,Remembering_Displays,2020.1.2,MacIntel,60,9,1,1,1,1.837185,0,14,14,6,1,Stimuli/testStimuliCube/6u_s_10.png,Stimuli/testStimuliCube/6u_s_10.png,0,9,0.82323,,,,,,,,
,,,,,,,21,female,A,2020-04-26_22h42.10.058,Remembering_Displays,2020.1.2,MacIntel,60,9,1,1,1,0.747875,0,15,15,10,1,Stimuli/testStimuliCube/6u_s_12.png,Stimuli/testStimuliCube/6u_s_12.png,0,9,0.895305,,,,,,,,
,,,,,,,21,female,A,2020-04-26_22h42.10.058,Remembering_Displays,2020.1.2,MacIntel,60,1,1,1,1,1.604245,0,16,16,3,1,Stimuli/testStimuliCube/6u_s_8.png,Stimuli/testStimuliCube/6u_d_8.png,1,1,0.63366,,,,,,,,
,,,,,,,21,female,A,2020-04-26_22h42.10.058,Remembering_Displays,2020.1.2,MacIntel,60,9,1,1,1,1.340175,0,17,17,22,1,Stimuli/testStimuliCube/6u_s_12_s.png,Stimuli/testStimuliCube/6u_s_12_s.png,0,9,0.88906,,,,,,,,
,,,,,,,21,female,A,2020-04-26_22h42.10.058,Remembering_Displays,2020.1.2,MacIntel,60,9,0,1,1,1.237,0,18,18,11,1,Stimuli/testStimuliCube/6u_s_12.png,Stimuli/testStimuliCube/6u_d_12.png,1,1,0.853265,,,,,,,,
,,,,,,,21,female,A,2020-04-26_22h42.10.058,Remembering_Displays,2020.1.2,MacIntel,60,9,1,1,1,0.484625,0,19,19,2,1,Stimuli/testStimuliCube/6u_s_8.png,Stimuli/testStimuliCube/6u_s_8.png,0,9,0.75567,,,,,,,,
,,,,,,,21,female,A,2020-04-26_22h42.10.058,Remembering_Displays,2020.1.2,MacIntel,60,9,1,9,1,0.880015,0,20,20,12,1,Stimuli/testStimuliCube/6u_s_7_s.png,Stimuli/testStimuliCube/6u_s_7_s.png,0,9,0.740415,,,,,,,,
,,,,,,,21,female,A,2020-04-26_22h42.10.058,Remembering_Displays,2020.1.2,MacIntel,60,9,1,9,1,1.016985,0,21,21,14,1,Stimuli/testStimuliCube/6u_s_8_s.png,Stimuli/testStimuliCube/6u_s_8_s.png,0,9,0.69139,,,,,,,,
,,,,,,,21,female,A,2020-04-26_22h42.10.058,Remembering_Displays,2020.1.2,MacIntel,60,1,1,1,0,1.737045,0,22,22,5,1,Stimuli/testStimuliCube/6u_s_9.png,Stimuli/testStimuliCube/6u_d_9.png,1,1,0.73357,,,,,,,,
,,,,,,,21,female,A,2020-04-26_22h42.10.058,Remembering_Displays,2020.1.2,MacIntel,60,9,1,9,1,0.751785,0,23,23,16,1,Stimuli/testStimuliCube/6u_s_9_s.png,Stimuli/testStimuliCube/6u_s_9_s.png,0,9,0.804515,,,,,,,,
,,,,,,,21,female,A,2020-04-26_22h42.10.058,Remembering_Displays,2020.1.2,MacIntel,60,,,,,,,,,,,,,,,,0,7,7,7,1,Stimuli/trialListCubes2.xlsx,Instructions/instr_18.png,Progress: 144 of 192 trials completed
,,,,,,,21,female,A,2020-04-26_22h42.10.058,Remembering_Displays,2020.1.2,MacIntel,60,9,1,1,1,0.553565,0,0,0,18,1,Stimuli/testStimuliSquare/6u_s_22_s_2D.png,Stimuli/testStimuliSquare/6u_s_22_s_2D.png,0,9,0.86245,,,,,,,,
,,,,,,,21,female,A,2020-04-26_22h42.10.058,Remembering_Displays,2020.1.2,MacIntel,60,9,1,9,1,1.39337,0,1,1,12,1,Stimuli/testStimuliSquare/6u_s_19_s_2D.png,Stimuli/testStimuliSquare/6u_s_19_s_2D.png,0,9,0.537765,,,,,,,,
,,,,,,,21,female,A,2020-04-26_22h42.10.058,Remembering_Displays,2020.1.2,MacIntel,60,1,1,1,1,1.4028,0,2,2,3,1,Stimuli/testStimuliSquare/6u_s_20_2D.png,Stimuli/testStimuliSquare/6u_d_20_2D.png,1,1,0.476855,,,,,,,,
,,,,,,,21,female,A,2020-04-26_22h42.10.058,Remembering_Displays,2020.1.2,MacIntel,60,1,1,1,1,0.985985,0,3,3,23,1,Stimuli/testStimuliSquare/6u_s_24_s_2D.png,Stimuli/testStimuliSquare/6u_d_24_s_2D.png,1,1,0.70259,,,,,,,,
,,,,,,,21,female,A,2020-04-26_22h42.10.058,Remembering_Displays,2020.1.2,MacIntel,60,1,1,9,1,1.119205,0,4,4,15,1,Stimuli/testStimuliSquare/6u_s_20_s_2D.png,Stimuli/testStimuliSquare/6u_d_20_s_2D.png,1,1,0.5833,,,,,,,,
,,,,,,,21,female,A,2020-04-26_22h42.10.058,Remembering_Displays,2020.1.2,MacIntel,60,1,1,1,1,1.037045,0,5,5,13,1,Stimuli/testStimuliSquare/6u_s_19_s_2D.png,Stimuli/testStimuliSquare/6u_d_19_s_2D.png,1,1,0.630765,,,,,,,,
,,,,,,,21,female,A,2020-04-26_22h42.10.058,Remembering_Displays,2020.1.2,MacIntel,60,9,1,1,1,0.82135,0,6,6,4,1,Stimuli/testStimuliSquare/6u_s_21_2D.png,Stimuli/testStimuliSquare/6u_s_21_2D.png,0,9,0.705495,,,,,,,,
,,,,,,,21,female,A,2020-04-26_22h42.10.058,Remembering_Displays,2020.1.2,MacIntel,60,1,1,9,1,1.11705,0,7,7,1,1,Stimuli/testStimuliSquare/6u_s_19_2D.png,Stimuli/testStimuliSquare/6u_d_19_2D.png,1,1,0.5909,,,,,,,,
,,,,,,,21,female,A,2020-04-26_22h42.10.058,Remembering_Displays,2020.1.2,MacIntel,60,9,0,1,1,1.204635,0,8,8,21,1,Stimuli/testStimuliSquare/6u_s_23_s_2D.png,Stimuli/testStimuliSquare/6u_d_23_s_2D.png,1,1,0.91165,,,,,,,,
,,,,,,,21,female,A,2020-04-26_22h42.10.058,Remembering_Displays,2020.1.2,MacIntel,60,9,1,1,1,1.575105,0,9,9,20,1,Stimuli/testStimuliSquare/6u_s_23_s_2D.png,Stimuli/testStimuliSquare/6u_s_23_s_2D.png,0,9,0.58312,,,,,,,,
,,,,,,,21,female,A,2020-04-26_22h42.10.058,Remembering_Displays,2020.1.2,MacIntel,60,1,1,9,1,1.7447,0,10,10,17,1,Stimuli/testStimuliSquare/6u_s_21_s_2D.png,Stimuli/testStimuliSquare/6u_d_21_s_2D.png,1,1,0.556095,,,,,,,,
,,,,,,,21,female,A,2020-04-26_22h42.10.058,Remembering_Displays,2020.1.2,MacIntel,60,9,1,9,1,0.735745,0,11,11,2,1,Stimuli/testStimuliSquare/6u_s_20_2D.png,Stimuli/testStimuliSquare/6u_s_20_2D.png,0,9,0.758345,,,,,,,,
,,,,,,,21,female,A,2020-04-26_22h42.10.058,Remembering_Displays,2020.1.2,MacIntel,60,9,0,1,1,0.66876,0,12,12,11,1,Stimuli/testStimuliSquare/6u_s_24_2D.png,Stimuli/testStimuliSquare/6u_d_24_2D.png,1,1,0.677825,,,,,,,,
,,,,,,,21,female,A,2020-04-26_22h42.10.058,Remembering_Displays,2020.1.2,MacIntel,60,9,1,1,1,0.65248,0,13,13,8,1,Stimuli/testStimuliSquare/6u_s_23_2D.png,Stimuli/testStimuliSquare/6u_s_23_2D.png,0,9,0.64263,,,,,,,,
,,,,,,,21,female,A,2020-04-26_22h42.10.058,Remembering_Displays,2020.1.2,MacIntel,60,9,1,1,1,0.51393,0,14,14,10,1,Stimuli/testStimuliSquare/6u_s_24_2D.png,Stimuli/testStimuliSquare/6u_s_24_2D.png,0,9,0.680565,,,,,,,,
,,,,,,,21,female,A,2020-04-26_22h42.10.058,Remembering_Displays,2020.1.2,MacIntel,60,9,1,9,1,2.756745,0,15,15,6,1,Stimuli/testStimuliSquare/6u_s_22_2D.png,Stimuli/testStimuliSquare/6u_s_22_2D.png,0,9,0.592475,,,,,,,,
,,,,,,,21,female,A,2020-04-26_22h42.10.058,Remembering_Displays,2020.1.2,MacIntel,60,9,1,1,1,0.559175,0,16,16,22,1,Stimuli/testStimuliSquare/6u_s_24_s_2D.png,Stimuli/testStimuliSquare/6u_s_24_s_2D.png,0,9,0.49116,,,,,,,,
,,,,,,,21,female,A,2020-04-26_22h42.10.058,Remembering_Displays,2020.1.2,MacIntel,60,1,0,1,1,1.309125,0,17,17,0,1,Stimuli/testStimuliSquare/6u_s_19_2D.png,Stimuli/testStimuliSquare/6u_s_19_2D.png,0,9,0.606475,,,,,,,,
,,,,,,,21,female,A,2020-04-26_22h42.10.058,Remembering_Displays,2020.1.2,MacIntel,60,9,0,1,0,1.47125,0,18,18,9,1,Stimuli/testStimuliSquare/6u_s_23_2D.png,Stimuli/testStimuliSquare/6u_d_23_2D.png,1,1,0.710575,,,,,,,,
,,,,,,,21,female,A,2020-04-26_22h42.10.058,Remembering_Displays,2020.1.2,MacIntel,60,1,1,9,1,0.903245,0,19,19,19,1,Stimuli/testStimuliSquare/6u_s_22_s_2D.png,Stimuli/testStimuliSquare/6u_d_22_s_2D.png,1,1,0.55793,,,,,,,,
,,,,,,,21,female,A,2020-04-26_22h42.10.058,Remembering_Displays,2020.1.2,MacIntel,60,1,1,1,1,0.965455,0,20,20,7,1,Stimuli/testStimuliSquare/6u_s_22_2D.png,Stimuli/testStimuliSquare/6u_d_22_2D.png,1,1,0.54525,,,,,,,,
,,,,,,,21,female,A,2020-04-26_22h42.10.058,Remembering_Displays,2020.1.2,MacIntel,60,1,0,9,1,0.70321,0,21,21,14,1,Stimuli/testStimuliSquare/6u_s_20_s_2D.png,Stimuli/testStimuliSquare/6u_s_20_s_2D.png,0,9,0.5895,,,,,,,,
,,,,,,,21,female,A,2020-04-26_22h42.10.058,Remembering_Displays,2020.1.2,MacIntel,60,9,1,1,1,0.52671,0,22,22,16,1,Stimuli/testStimuliSquare/6u_s_21_s_2D.png,Stimuli/testStimuliSquare/6u_s_21_s_2D.png,0,9,0.893305,,,,,,,,
,,,,,,,21,female,A,2020-04-26_22h42.10.058,Remembering_Displays,2020.1.2,MacIntel,60,1,1,9,1,0.61916,0,23,23,5,1,Stimuli/testStimuliSquare/6u_s_21_2D.png,Stimuli/testStimuliSquare/6u_d_21_2D.png,1,1,0.528465,,,,,,,,
,,,,,,,21,female,A,2020-04-26_22h42.10.058,Remembering_Displays,2020.1.2,MacIntel,60,,,,,,,,,,,,,,,,0,8,8,8,1,Stimuli/trialListSquares4.xlsx,Instructions/instr_17.png,Progress: 168 of 192 trials completed
,,,,,,,21,female,A,2020-04-26_22h42.10.058,Remembering_Displays,2020.1.2,MacIntel,60,1,1,1,1,0.98603,0,0,0,11,1,Stimuli/testStimuliCube/6u_s_6.png,Stimuli/testStimuliCube/6u_d_6.png,1,1,0.78166,,,,,,,,
,,,,,,,21,female,A,2020-04-26_22h42.10.058,Remembering_Displays,2020.1.2,MacIntel,60,9,1,9,1,0.850825,0,1,1,4,1,Stimuli/testStimuliCube/6u_s_3.png,Stimuli/testStimuliCube/6u_s_3.png,0,9,0.573975,,,,,,,,
,,,,,,,21,female,A,2020-04-26_22h42.10.058,Remembering_Displays,2020.1.2,MacIntel,60,9,1,1,1,0.550865,0,2,2,18,1,Stimuli/testStimuliCube/6u_s_4_s.png,Stimuli/testStimuliCube/6u_s_4_s.png,0,9,0.586925,,,,,,,,
,,,,,,,21,female,A,2020-04-26_22h42.10.058,Remembering_Displays,2020.1.2,MacIntel,60,9,1,9,1,1.066955,0,3,3,22,1,Stimuli/testStimuliCube/6u_s_6_s.png,Stimuli/testStimuliCube/6u_s_6_s.png,0,9,0.651415,,,,,,,,
,,,,,,,21,female,A,2020-04-26_22h42.10.058,Remembering_Displays,2020.1.2,MacIntel,60,1,1,9,1,0.7049,0,4,4,21,1,Stimuli/testStimuliCube/6u_s_5_s.png,Stimuli/testStimuliCube/6u_d_5_s.png,1,1,0.663595,,,,,,,,
,,,,,,,21,female,A,2020-04-26_22h42.10.058,Remembering_Displays,2020.1.2,MacIntel,60,1,1,9,1,4.13796,0,5,5,17,1,Stimuli/testStimuliCube/6u_s_3_s.png,Stimuli/testStimuliCube/6u_d_3_s.png,1,1,0.498105,,,,,,,,
,,,,,,,21,female,A,2020-04-26_22h42.10.058,Remembering_Displays,2020.1.2,MacIntel,60,1,1,1,1,0.472,0,6,6,3,1,Stimuli/testStimuliCube/6u_s_2.png,Stimuli/testStimuliCube/6u_d_2.png,1,1,0.54596,,,,,,,,
,,,,,,,21,female,A,2020-04-26_22h42.10.058,Remembering_Displays,2020.1.2,MacIntel,60,1,1,9,1,3.21866,0,7,7,7,1,Stimuli/testStimuliCube/6u_s_4.png,Stimuli/testStimuliCube/6u_d_4.png,1,1,0.617535,,,,,,,,
,,,,,,,21,female,A,2020-04-26_22h42.10.058,Remembering_Displays,2020.1.2,MacIntel,60,9,1,9,1,1.63593,0,8,8,0,1,Stimuli/testStimuliCube/6u_s_1.png,Stimuli/testStimuliCube/6u_s_1.png,0,9,0.83886,,,,,,,,
,,,,,,,21,female,A,2020-04-26_22h42.10.058,Remembering_Displays,2020.1.2,MacIntel,60,1,1,1,1,0.672515,0,9,9,13,1,Stimuli/testStimuliCube/6u_s_1_s.png,Stimuli/testStimuliCube/6u_d_1_s.png,1,1,0.45128,,,,,,,,
,,,,,,,21,female,A,2020-04-26_22h42.10.058,Remembering_Displays,2020.1.2,MacIntel,60,1,0,1,1,0.56861,0,10,10,14,1,Stimuli/testStimuliCube/6u_s_2_s.png,Stimuli/testStimuliCube/6u_s_2_s.png,0,9,0.674555,,,,,,,,
,,,,,,,21,female,A,2020-04-26_22h42.10.058,Remembering_Displays,2020.1.2,MacIntel,60,1,1,1,1,0.8091,0,11,11,23,1,Stimuli/testStimuliCube/6u_s_6_s.png,Stimuli/testStimuliCube/6u_d_6_s.png,1,1,0.626015,,,,,,,,
,,,,,,,21,female,A,2020-04-26_22h42.10.058,Remembering_Displays,2020.1.2,MacIntel,60,1,1,9,0,3.027485,0,12,12,1,1,Stimuli/testStimuliCube/6u_s_1.png,Stimuli/testStimuliCube/6u_d_1.png,1,1,0.46438,,,,,,,,
,,,,,,,21,female,A,2020-04-26_22h42.10.058,Remembering_Displays,2020.1.2,MacIntel,60,1,1,1,0,4.23775,0,13,13,19,1,Stimuli/testStimuliCube/6u_s_4_s.png,Stimuli/testStimuliCube/6u_d_4_s.png,1,1,0.584055,,,,,,,,
,,,,,,,21,female,A,2020-04-26_22h42.10.058,Remembering_Displays,2020.1.2,MacIntel,60,9,1,1,1,0.554825,0,14,14,6,1,Stimuli/testStimuliCube/6u_s_4.png,Stimuli/testStimuliCube/6u_s_4.png,0,9,0.67417,,,,,,,,
,,,,,,,21,female,A,2020-04-26_22h42.10.058,Remembering_Displays,2020.1.2,MacIntel,60,9,1,9,1,1.009555,0,15,15,8,1,Stimuli/testStimuliCube/6u_s_5.png,Stimuli/testStimuliCube/6u_s_5.png,0,9,0.667875,,,,,,,,
,,,,,,,21,female,A,2020-04-26_22h42.10.058,Remembering_Displays,2020.1.2,MacIntel,60,9,1,1,0,0.573195,0,16,16,20,1,Stimuli/testStimuliCube/6u_s_5_s.png,Stimuli/testStimuliCube/6u_s_5_s.png,0,9,0.757615,,,,,,,,
,,,,,,,21,female,A,2020-04-26_22h42.10.058,Remembering_Displays,2020.1.2,MacIntel,60,9,1,1,1,1.759605,0,17,17,16,1,Stimuli/testStimuliCube/6u_s_3_s.png,Stimuli/testStimuliCube/6u_s_3_s.png,0,9,0.46549,,,,,,,,
,,,,,,,21,female,A,2020-04-26_22h42.10.058,Remembering_Displays,2020.1.2,MacIntel,60,1,1,1,1,1.80323,0,18,18,15,1,Stimuli/testStimuliCube/6u_s_2_s.png,Stimuli/testStimuliCube/6u_d_2_s.png,1,1,0.74125,,,,,,,,
,,,,,,,21,female,A,2020-04-26_22h42.10.058,Remembering_Displays,2020.1.2,MacIntel,60,9,0,1,1,0.894345,0,19,19,9,1,Stimuli/testStimuliCube/6u_s_5.png,Stimuli/testStimuliCube/6u_d_5.png,1,1,0.69393,,,,,,,,
,,,,,,,21,female,A,2020-04-26_22h42.10.058,Remembering_Displays,2020.1.2,MacIntel,60,9,1,9,1,1.41063,0,20,20,10,1,Stimuli/testStimuliCube/6u_s_6.png,Stimuli/testStimuliCube/6u_s_6.png,0,9,0.90637,,,,,,,,
,,,,,,,21,female,A,2020-04-26_22h42.10.058,Remembering_Displays,2020.1.2,MacIntel,60,9,1,1,1,0.533525,0,21,21,12,1,Stimuli/testStimuliCube/6u_s_1_s.png,Stimuli/testStimuliCube/6u_s_1_s.png,0,9,0.98149,,,,,,,,
,,,,,,,21,female,A,2020-04-26_22h42.10.058,Remembering_Displays,2020.1.2,MacIntel,60,9,1,9,1,0.922185,0,22,22,2,1,Stimuli/testStimuliCube/6u_s_2.png,Stimuli/testStimuliCube/6u_s_2.png,0,9,0.974675,,,,,,,,
,,,,,,,21,female,A,2020-04-26_22h42.10.058,Remembering_Displays,2020.1.2,MacIntel,60,9,0,9,1,1.203905,0,23,23,5,1,Stimuli/testStimuliCube/6u_s_3.png,Stimuli/testStimuliCube/6u_d_3.png,1,1,0.69403,,,,,,,,