instr_Loop.thisRepN,instr_Loop.thisTrialN,instr_Loop.thisN,instr_Loop.thisIndex,instr_Loop.ran,instructionImage,time,age,sex (female/male),order,date,expName,psychopyVersion,OS,frameRate,struc_judge_respond.keys,struc_judge_respond.corr,dual_respond.keys,dual_respond.corr,dual_respond.rt,trials.thisRepN,trials.thisTrialN,trials.thisN,trials.thisIndex,trials.ran,stim1,stim2,isAnyChange,corrAns,struc_judge_respond.rt,selectBlock.thisRepN,selectBlock.thisTrialN,selectBlock.thisN,selectBlock.thisIndex,selectBlock.ran,condsFile,condsImage,remaining
0,0,0,0,1,Instructions/instr_1.png,5,19,female,A,2020-05-01_07h20.29.551,Remembering_Displays,2020.1.2,MacIntel,60,,,,,,,,,,,,,,,,,,,,,,,
0,1,1,1,1,Instructions/instr_2.png,3,19,female,A,2020-05-01_07h20.29.551,Remembering_Displays,2020.1.2,MacIntel,60,,,,,,,,,,,,,,,,,,,,,,,
0,2,2,2,1,Instructions/instr_3.png,5,19,female,A,2020-05-01_07h20.29.551,Remembering_Displays,2020.1.2,MacIntel,60,,,,,,,,,,,,,,,,,,,,,,,
0,3,3,3,1,Instructions/instr_4.png,1,19,female,A,2020-05-01_07h20.29.551,Remembering_Displays,2020.1.2,MacIntel,60,,,,,,,,,,,,,,,,,,,,,,,
0,4,4,4,1,Instructions/instr_5.png,1,19,female,A,2020-05-01_07h20.29.551,Remembering_Displays,2020.1.2,MacIntel,60,,,,,,,,,,,,,,,,,,,,,,,
0,5,5,5,1,Instructions/instr_6.png,1,19,female,A,2020-05-01_07h20.29.551,Remembering_Displays,2020.1.2,MacIntel,60,,,,,,,,,,,,,,,,,,,,,,,
0,6,6,6,1,Instructions/instr_7.png,1,19,female,A,2020-05-01_07h20.29.551,Remembering_Displays,2020.1.2,MacIntel,60,,,,,,,,,,,,,,,,,,,,,,,
0,7,7,7,1,Instructions/instr_8.png,3,19,female,A,2020-05-01_07h20.29.551,Remembering_Displays,2020.1.2,MacIntel,60,,,,,,,,,,,,,,,,,,,,,,,
0,8,8,8,1,Instructions/instr_9.png,3,19,female,A,2020-05-01_07h20.29.551,Remembering_Displays,2020.1.2,MacIntel,60,,,,,,,,,,,,,,,,,,,,,,,
0,9,9,9,1,Instructions/instr_10.png,3,19,female,A,2020-05-01_07h20.29.551,Remembering_Displays,2020.1.2,MacIntel,60,,,,,,,,,,,,,,,,,,,,,,,
0,10,10,10,1,Instructions/instr_11.png,3,19,female,A,2020-05-01_07h20.29.551,Remembering_Displays,2020.1.2,MacIntel,60,,,,,,,,,,,,,,,,,,,,,,,
0,11,11,11,1,Instructions/instr_12.png,3,19,female,A,2020-05-01_07h20.29.551,Remembering_Displays,2020.1.2,MacIntel,60,,,,,,,,,,,,,,,,,,,,,,,
0,12,12,12,1,Instructions/instr_13.png,3,19,female,A,2020-05-01_07h20.29.551,Remembering_Displays,2020.1.2,MacIntel,60,,,,,,,,,,,,,,,,,,,,,,,
0,13,13,13,1,Instructions/instr_14.png,3,19,female,A,2020-05-01_07h20.29.551,Remembering_Displays,2020.1.2,MacIntel,60,,,,,,,,,,,,,,,,,,,,,,,
0,14,14,14,1,Instructions/instr_15.png,3,19,female,A,2020-05-01_07h20.29.551,Remembering_Displays,2020.1.2,MacIntel,60,,,,,,,,,,,,,,,,,,,,,,,
0,15,15,15,1,Instructions/instr_16.png,5,19,female,A,2020-05-01_07h20.29.551,Remembering_Displays,2020.1.2,MacIntel,60,,,,,,,,,,,,,,,,,,,,,,,
,,,,,,,19,female,A,2020-05-01_07h20.29.551,Remembering_Displays,2020.1.2,MacIntel,60,,0,1,0,17.29796,0,0,0,2,1,Stimuli/practiceStimuliSquare/practice3_s.png,Stimuli/practiceStimuliSquare/practice3_s.png,0,9,,,,,,,,,
,,,,,,,19,female,A,2020-05-01_07h20.29.551,Remembering_Displays,2020.1.2,MacIntel,60,9,1,9,1,3.12919,0,1,1,0,1,Stimuli/practiceStimuliSquare/practice1_s.png,Stimuli/practiceStimuliSquare/practice1_s.png,0,9,0.584795,,,,,,,,
,,,,,,,19,female,A,2020-05-01_07h20.29.551,Remembering_Displays,2020.1.2,MacIntel,60,9,1,9,0,1.40534,0,2,2,5,1,Stimuli/practiceStimuliSquare/practice2_s.png,Stimuli/practiceStimuliSquare/practice2_s.png,0,9,1.002325,,,,,,,,
,,,,,,,19,female,A,2020-05-01_07h20.29.551,Remembering_Displays,2020.1.2,MacIntel,60,1,1,1,1,1.6186,0,3,3,3,1,Stimuli/practiceStimuliSquare/practice4_s.png,Stimuli/practiceStimuliSquare/practice4_d.png,1,1,0.88592,,,,,,,,
,,,,,,,19,female,A,2020-05-01_07h20.29.551,Remembering_Displays,2020.1.2,MacIntel,60,9,1,1,1,0.93558,0,4,4,7,1,Stimuli/practiceStimuliSquare/practice4_s.png,Stimuli/practiceStimuliSquare/practice4_s.png,0,9,0.87289,,,,,,,,
,,,,,,,19,female,A,2020-05-01_07h20.29.551,Remembering_Displays,2020.1.2,MacIntel,60,1,1,9,1,1.53968,0,5,5,1,1,Stimuli/practiceStimuliSquare/practice2_s.png,Stimuli/practiceStimuliSquare/practice2_d.png,1,1,1.08771,,,,,,,,
,,,,,,,19,female,A,2020-05-01_07h20.29.551,Remembering_Displays,2020.1.2,MacIntel,60,1,1,9,1,1.363995,0,6,6,6,1,Stimuli/practiceStimuliSquare/practice3_s.png,Stimuli/practiceStimuliSquare/practice3_d.png,1,1,0.834915,,,,,,,,
,,,,,,,19,female,A,2020-05-01_07h20.29.551,Remembering_Displays,2020.1.2,MacIntel,60,1,1,1,1,1.451845,0,7,7,4,1,Stimuli/practiceStimuliSquare/practice1_s.png,Stimuli/practiceStimuliSquare/practice1_d.png,1,1,0.60501,,,,,,,,
,,,,,,,19,female,A,2020-05-01_07h20.29.551,Remembering_Displays,2020.1.2,MacIntel,60,,,,,,,,,,,,,,,,0,0,0,0,1,Stimuli/practiceListSquares.xlsx,Instructions/instr_practice_A.png,Practice trials completed
,,,,,,,19,female,A,2020-05-01_07h20.29.551,Remembering_Displays,2020.1.2,MacIntel,60,1,1,9,1,1.732685,0,0,0,11,1,Stimuli/testStimuliSquare/6u_s_6_2D.png,Stimuli/testStimuliSquare/6u_d_6_2D.png,1,1,0.970445,,,,,,,,
,,,,,,,19,female,A,2020-05-01_07h20.29.551,Remembering_Displays,2020.1.2,MacIntel,60,9,1,9,1,1.181285,0,1,1,20,1,Stimuli/testStimuliSquare/6u_s_5_s_2D.png,Stimuli/testStimuliSquare/6u_s_5_s_2D.png,0,9,0.96217,,,,,,,,
,,,,,,,19,female,A,2020-05-01_07h20.29.551,Remembering_Displays,2020.1.2,MacIntel,60,9,1,9,1,0.935605,0,2,2,0,1,Stimuli/testStimuliSquare/6u_s_1_2D.png,Stimuli/testStimuliSquare/6u_s_1_2D.png,0,9,0.89559,,,,,,,,
,,,,,,,19,female,A,2020-05-01_07h20.29.551,Remembering_Displays,2020.1.2,MacIntel,60,9,1,1,1,0.68525,0,3,3,6,1,Stimuli/testStimuliSquare/6u_s_4_2D.png,Stimuli/testStimuliSquare/6u_s_4_2D.png,0,9,0.801155,,,,,,,,
,,,,,,,19,female,A,2020-05-01_07h20.29.551,Remembering_Displays,2020.1.2,MacIntel,60,1,1,9,0,1.5509,0,4,4,5,1,Stimuli/testStimuliSquare/6u_s_3_2D.png,Stimuli/testStimuliSquare/6u_d_3_2D.png,1,1,1.15073,,,,,,,,
,,,,,,,19,female,A,2020-05-01_07h20.29.551,Remembering_Displays,2020.1.2,MacIntel,60,9,0,9,1,1.16902,0,5,5,9,1,Stimuli/testStimuliSquare/6u_s_5_2D.png,Stimuli/testStimuliSquare/6u_d_5_2D.png,1,1,0.921475,,,,,,,,
,,,,,,,19,female,A,2020-05-01_07h20.29.551,Remembering_Displays,2020.1.2,MacIntel,60,1,1,9,1,0.878355,0,6,6,1,1,Stimuli/testStimuliSquare/6u_s_1_2D.png,Stimuli/testStimuliSquare/6u_d_1_2D.png,1,1,0.73391,,,,,,,,
,,,,,,,19,female,A,2020-05-01_07h20.29.551,Remembering_Displays,2020.1.2,MacIntel,60,9,1,1,1,0.836135,0,7,7,16,1,Stimuli/testStimuliSquare/6u_s_3_s_2D.png,Stimuli/testStimuliSquare/6u_s_3_s_2D.png,0,9,1.10602,,,,,,,,
,,,,,,,19,female,A,2020-05-01_07h20.29.551,Remembering_Displays,2020.1.2,MacIntel,60,1,1,1,0,1.11387,0,8,8,19,1,Stimuli/testStimuliSquare/6u_s_4_s_2D.png,Stimuli/testStimuliSquare/6u_d_4_s_2D.png,1,1,0.9515,,,,,,,,
,,,,,,,19,female,A,2020-05-01_07h20.29.551,Remembering_Displays,2020.1.2,MacIntel,60,9,1,9,1,1.478205,0,9,9,14,1,Stimuli/testStimuliSquare/6u_s_2_s_2D.png,Stimuli/testStimuliSquare/6u_s_2_s_2D.png,0,9,0.93531,,,,,,,,
,,,,,,,19,female,A,2020-05-01_07h20.29.551,Remembering_Displays,2020.1.2,MacIntel,60,1,1,9,0,1.58693,0,10,10,3,1,Stimuli/testStimuliSquare/6u_s_2_2D.png,Stimuli/testStimuliSquare/6u_d_2_2D.png,1,1,1.060055,,,,,,,,
,,,,,,,19,female,A,2020-05-01_07h20.29.551,Remembering_Displays,2020.1.2,MacIntel,60,1,0,1,1,3.0118,0,11,11,18,1,Stimuli/testStimuliSquare/6u_s_4_s_2D.png,Stimuli/testStimuliSquare/6u_s_4_s_2D.png,0,9,0.83225,,,,,,,,
,,,,,,,19,female,A,2020-05-01_07h20.29.551,Remembering_Displays,2020.1.2,MacIntel,60,1,1,9,1,2.36802,0,12,12,21,1,Stimuli/testStimuliSquare/6u_s_5_s_2D.png,Stimuli/testStimuliSquare/6u_d_5_s_2D.png,1,1,0.948765,,,,,,,,
,,,,,,,19,female,A,2020-05-01_07h20.29.551,Remembering_Displays,2020.1.2,MacIntel,60,9,1,9,1,0.807575,0,13,13,22,1,Stimuli/testStimuliSquare/6u_s_6_s_2D.png,Stimuli/testStimuliSquare/6u_s_6_s_2D.png,0,9,1.0179,,,,,,,,
,,,,,,,19,female,A,2020-05-01_07h20.29.551,Remembering_Displays,2020.1.2,MacIntel,60,9,1,1,1,0.95685,0,14,14,8,1,Stimuli/testStimuliSquare/6u_s_5_2D.png,Stimuli/testStimuliSquare/6u_s_5_2D.png,0,9,0.789775,,,,,,,,
,,,,,,,19,female,A,2020-05-01_07h20.29.551,Remembering_Displays,2020.1.2,MacIntel,60,9,1,1,1,0.501955,0,15,15,12,1,Stimuli/testStimuliSquare/6u_s_1_s_2D.png,Stimuli/testStimuliSquare/6u_s_1_s_2D.png,0,9,1.05191,,,,,,,,
,,,,,,,19,female,A,2020-05-01_07h20.29.551,Remembering_Displays,2020.1.2,MacIntel,60,1,1,9,1,1.01637,0,16,16,13,1,Stimuli/testStimuliSquare/6u_s_1_s_2D.png,Stimuli/testStimuliSquare/6u_d_1_s_2D.png,1,1,1.095305,,,,,,,,
,,,,,,,19,female,A,2020-05-01_07h20.29.551,Remembering_Displays,2020.1.2,MacIntel,60,1,0,1,1,0.992925,0,17,17,2,1,Stimuli/testStimuliSquare/6u_s_2_2D.png,Stimuli/testStimuliSquare/6u_s_2_2D.png,0,9,1.0291,,,,,,,,
,,,,,,,19,female,A,2020-05-01_07h20.29.551,Remembering_Displays,2020.1.2,MacIntel,60,9,1,1,1,0.629685,0,18,18,4,1,Stimuli/testStimuliSquare/6u_s_3_2D.png,Stimuli/testStimuliSquare/6u_s_3_2D.png,0,9,0.74417,,,,,,,,
,,,,,,,19,female,A,2020-05-01_07h20.29.551,Remembering_Displays,2020.1.2,MacIntel,60,1,1,9,1,1.083905,0,19,19,15,1,Stimuli/testStimuliSquare/6u_s_2_s_2D.png,Stimuli/testStimuliSquare/6u_d_2_s_2D.png,1,1,0.921855,,,,,,,,
,,,,,,,19,female,A,2020-05-01_07h20.29.551,Remembering_Displays,2020.1.2,MacIntel,60,1,1,9,1,2.010665,0,20,20,23,1,Stimuli/testStimuliSquare/6u_s_6_s_2D.png,Stimuli/testStimuliSquare/6u_d_6_s_2D.png,1,1,1.328995,,,,,,,,
,,,,,,,19,female,A,2020-05-01_07h20.29.551,Remembering_Displays,2020.1.2,MacIntel,60,1,1,9,1,1.164505,0,21,21,7,1,Stimuli/testStimuliSquare/6u_s_4_2D.png,Stimuli/testStimuliSquare/6u_d_4_2D.png,1,1,0.79253,,,,,,,,
,,,,,,,19,female,A,2020-05-01_07h20.29.551,Remembering_Displays,2020.1.2,MacIntel,60,1,1,9,1,0.72717,0,22,22,17,1,Stimuli/testStimuliSquare/6u_s_3_s_2D.png,Stimuli/testStimuliSquare/6u_d_3_s_2D.png,1,1,0.848415,,,,,,,,
,,,,,,,19,female,A,2020-05-01_07h20.29.551,Remembering_Displays,2020.1.2,MacIntel,60,9,1,9,1,0.685115,0,23,23,10,1,Stimuli/testStimuliSquare/6u_s_6_2D.png,Stimuli/testStimuliSquare/6u_s_6_2D.png,0,9,0.747495,,,,,,,,
,,,,,,,19,female,A,2020-05-01_07h20.29.551,Remembering_Displays,2020.1.2,MacIntel,60,,,,,,,,,,,,,,,,0,1,1,1,1,Stimuli/trialListSquares1.xlsx,Instructions/instr_18.png,Progress: 24 of 192 trials completed
,,,,,,,19,female,A,2020-05-01_07h20.29.551,Remembering_Displays,2020.1.2,MacIntel,60,1,0,9,1,0.71484,0,0,0,7,1,Stimuli/practiceStimuliCube/practice4_s.png,Stimuli/practiceStimuliCube/practice4_s.png,0,9,0.887415,,,,,,,,
,,,,,,,19,female,A,2020-05-01_07h20.29.551,Remembering_Displays,2020.1.2,MacIntel,60,9,0,1,1,2.07964,0,1,1,1,1,Stimuli/practiceStimuliCube/practice2_s.png,Stimuli/practiceStimuliCube/practice2_d.png,1,1,0.918935,,,,,,,,
,,,,,,,19,female,A,2020-05-01_07h20.29.551,Remembering_Displays,2020.1.2,MacIntel,60,9,1,9,1,1.18705,0,2,2,5,1,Stimuli/practiceStimuliCube/practice2_s.png,Stimuli/practiceStimuliCube/practice2_s.png,0,9,1.036175,,,,,,,,
,,,,,,,19,female,A,2020-05-01_07h20.29.551,Remembering_Displays,2020.1.2,MacIntel,60,9,0,9,1,1.1217,0,3,3,3,1,Stimuli/practiceStimuliCube/practice4_s.png,Stimuli/practiceStimuliCube/practice4_d.png,1,1,0.786765,,,,,,,,
,,,,,,,19,female,A,2020-05-01_07h20.29.551,Remembering_Displays,2020.1.2,MacIntel,60,9,1,9,1,0.73066,0,4,4,0,1,Stimuli/practiceStimuliCube/practice1_s.png,Stimuli/practiceStimuliCube/practice1_s.png,0,9,0.76953,,,,,,,,
,,,,,,,19,female,A,2020-05-01_07h20.29.551,Remembering_Displays,2020.1.2,MacIntel,60,1,1,9,1,0.628045,0,5,5,4,1,Stimuli/practiceStimuliCube/practice1_s.png,Stimuli/practiceStimuliCube/practice1_d.png,1,1,0.768165,,,,,,,,
,,,,,,,19,female,A,2020-05-01_07h20.29.551,Remembering_Displays,2020.1.2,MacIntel,60,1,1,9,1,0.76145,0,6,6,6,1,Stimuli/practiceStimuliCube/practice3_s.png,Stimuli/practiceStimuliCube/practice3_d.png,1,1,0.806345,,,,,,,,
,,,,,,,19,female,A,2020-05-01_07h20.29.551,Remembering_Displays,2020.1.2,MacIntel,60,9,1,9,1,1.07439,0,7,7,2,1,Stimuli/practiceStimuliCube/practice3_s.png,Stimuli/practiceStimuliCube/practice3_s.png,0,9,0.844685,,,,,,,,
,,,,,,,19,female,A,2020-05-01_07h20.29.551,Remembering_Displays,2020.1.2,MacIntel,60,,,,,,,,,,,,,,,,0,2,2,2,1,Stimuli/practiceListCubes.xlsx,Instructions/instr_practice_B.png,Practice trials completed
,,,,,,,19,female,A,2020-05-01_07h20.29.551,Remembering_Displays,2020.1.2,MacIntel,60,9,1,1,1,0.799465,0,0,0,18,1,Stimuli/testStimuliCube/6u_s_22_s.png,Stimuli/testStimuliCube/6u_s_22_s.png,0,9,1.35273,,,,,,,,
,,,,,,,19,female,A,2020-05-01_07h20.29.551,Remembering_Displays,2020.1.2,MacIntel,60,1,1,9,1,0.54515,0,1,1,3,1,Stimuli/testStimuliCube/6u_s_20.png,Stimuli/testStimuliCube/6u_d_20.png,1,1,0.69803,,,,,,,,
,,,,,,,19,female,A,2020-05-01_07h20.29.551,Remembering_Displays,2020.1.2,MacIntel,60,9,0,1,1,0.927275,0,2,2,21,1,Stimuli/testStimuliCube/6u_s_23_s.png,Stimuli/testStimuliCube/6u_d_23_s.png,1,1,0.774915,,,,,,,,
,,,,,,,19,female,A,2020-05-01_07h20.29.551,Remembering_Displays,2020.1.2,MacIntel,60,1,0,9,1,0.828515,0,3,3,0,1,Stimuli/testStimuliCube/6u_s_19.png,Stimuli/testStimuliCube/6u_s_19.png,0,9,0.93687,,,,,,,,
,,,,,,,19,female,A,2020-05-01_07h20.29.551,Remembering_Displays,2020.1.2,MacIntel,60,1,0,1,1,1.333385,0,4,4,12,1,Stimuli/testStimuliCube/6u_s_19_s.png,Stimuli/testStimuliCube/6u_s_19_s.png,0,9,0.752145,,,,,,,,
,,,,,,,19,female,A,2020-05-01_07h20.29.551,Remembering_Displays,2020.1.2,MacIntel,60,1,1,1,1,0.761975,0,5,5,19,1,Stimuli/testStimuliCube/6u_s_22_s.png,Stimuli/testStimuliCube/6u_d_22_s.png,1,1,0.945785,,,,,,,,
,,,,,,,19,female,A,2020-05-01_07h20.29.551,Remembering_Displays,2020.1.2,MacIntel,60,1,1,1,1,1.227255,0,6,6,15,1,Stimuli/testStimuliCube/6u_s_20_s.png,Stimuli/testStimuliCube/6u_d_20_s.png,1,1,0.917355,,,,,,,,
,,,,,,,19,female,A,2020-05-01_07h20.29.551,Remembering_Displays,2020.1.2,MacIntel,60,9,1,9,1,0.75108,0,7,7,8,1,Stimuli/testStimuliCube/6u_s_23.png,Stimuli/testStimuliCube/6u_s_23.png,0,9,0.918955,,,,,,,,
,,,,,,,19,female,A,2020-05-01_07h20.29.551,Remembering_Displays,2020.1.2,MacIntel,60,9,1,1,1,1.11987,0,8,8,6,1,Stimuli/testStimuliCube/6u_s_22.png,Stimuli/testStimuliCube/6u_s_22.png,0,9,0.844825,,,,,,,,
,,,,,,,19,female,A,2020-05-01_07h20.29.551,Remembering_Displays,2020.1.2,MacIntel,60,9,1,9,1,0.856345,0,9,9,14,1,Stimuli/testStimuliCube/6u_s_20_s.png,Stimuli/testStimuliCube/6u_s_20_s.png,0,9,0.849095,,,,,,,,
,,,,,,,19,female,A,2020-05-01_07h20.29.551,Remembering_Displays,2020.1.2,MacIntel,60,1,1,9,1,0.768635,0,10,10,7,1,Stimuli/testStimuliCube/6u_s_22.png,Stimuli/testStimuliCube/6u_d_22.png,1,1,0.60957,,,,,,,,
,,,,,,,19,female,A,2020-05-01_07h20.29.551,Remembering_Displays,2020.1.2,MacIntel,60,9,1,1,1,0.536695,0,11,11,4,1,Stimuli/testStimuliCube/6u_s_21.png,Stimuli/testStimuliCube/6u_s_21.png,0,9,1.168375,,,,,,,,
,,,,,,,19,female,A,2020-05-01_07h20.29.551,Remembering_Displays,2020.1.2,MacIntel,60,1,1,9,1,0.70388,0,12,12,5,1,Stimuli/testStimuliCube/6u_s_21.png,Stimuli/testStimuliCube/6u_d_21.png,1,1,0.685685,,,,,,,,
,,,,,,,19,female,A,2020-05-01_07h20.29.551,Remembering_Displays,2020.1.2,MacIntel,60,9,1,1,1,0.684725,0,13,13,20,1,Stimuli/testStimuliCube/6u_s_23_s.png,Stimuli/testStimuliCube/6u_s_23_s.png,0,9,1.085925,,,,,,,,
,,,,,,,19,female,A,2020-05-01_07h20.29.551,Remembering_Displays,2020.1.2,MacIntel,60,9,1,1,1,2.0592,0,14,14,16,1,Stimuli/testStimuliCube/6u_s_21_s.png,Stimuli/testStimuliCube/6u_s_21_s.png,0,9,0.928485,,,,,,,,
,,,,,,,19,female,A,2020-05-01_07h20.29.551,Remembering_Displays,2020.1.2,MacIntel,60,1,1,9,1,0.7255,0,15,15,1,1,Stimuli/testStimuliCube/6u_s_19.png,Stimuli/testStimuliCube/6u_d_19.png,1,1,0.786865,,,,,,,,
,,,,,,,19,female,A,2020-05-01_07h20.29.551,Remembering_Displays,2020.1.2,MacIntel,60,1,1,9,1,0.734685,0,16,16,11,1,Stimuli/testStimuliCube/6u_s_24.png,Stimuli/testStimuliCube/6u_d_24.png,1,1,0.619585,,,,,,,,
,,,,,,,19,female,A,2020-05-01_07h20.29.551,Remembering_Displays,2020.1.2,MacIntel,60,9,0,1,1,1.21954,0,17,17,9,1,Stimuli/testStimuliCube/6u_s_23.png,Stimuli/testStimuliCube/6u_d_23.png,1,1,0.97132,,,,,,,,
,,,,,,,19,female,A,2020-05-01_07h20.29.551,Remembering_Displays,2020.1.2,MacIntel,60,1,1,9,1,0.64797,0,18,18,13,1,Stimuli/testStimuliCube/6u_s_19_s.png,Stimuli/testStimuliCube/6u_d_19_s.png,1,1,0.836865,,,,,,,,
,,,,,,,19,female,A,2020-05-01_07h20.29.551,Remembering_Displays,2020.1.2,MacIntel,60,9,1,9,1,0.70214,0,19,19,22,1,Stimuli/testStimuliCube/6u_s_24_s.png,Stimuli/testStimuliCube/6u_s_24_s.png,0,9,0.908845,,,,,,,,
,,,,,,,19,female,A,2020-05-01_07h20.29.551,Remembering_Displays,2020.1.2,MacIntel,60,9,1,9,1,0.639865,0,20,20,10,1,Stimuli/testStimuliCube/6u_s_24.png,Stimuli/testStimuliCube/6u_s_24.png,0,9,0.646005,,,,,,,,
,,,,,,,19,female,A,2020-05-01_07h20.29.551,Remembering_Displays,2020.1.2,MacIntel,60,1,1,9,1,1.77456,0,21,21,17,1,Stimuli/testStimuliCube/6u_s_21_s.png,Stimuli/testStimuliCube/6u_d_21_s.png,1,1,0.829555,,,,,,,,
,,,,,,,19,female,A,2020-05-01_07h20.29.551,Remembering_Displays,2020.1.2,MacIntel,60,1,1,1,1,5.27115,0,22,22,23,1,Stimuli/testStimuliCube/6u_s_24_s.png,Stimuli/testStimuliCube/6u_d_24_s.png,1,1,0.76855,,,,,,,,
,,,,,,,19,female,A,2020-05-01_07h20.29.551,Remembering_Displays,2020.1.2,MacIntel,60,9,1,9,1,0.82298,0,23,23,2,1,Stimuli/testStimuliCube/6u_s_20.png,Stimuli/testStimuliCube/6u_s_20.png,0,9,1.43769,,,,,,,,
,,,,,,,19,female,A,2020-05-01_07h20.29.551,Remembering_Displays,2020.1.2,MacIntel,60,,,,,,,,,,,,,,,,0,3,3,3,1,Stimuli/trialListCubes4.xlsx,Instructions/instr_19.png,Progress: 48 of 192 trials completed
,,,,,,,19,female,A,2020-05-01_07h20.29.551,Remembering_Displays,2020.1.2,MacIntel,60,9,1,9,1,0.88432,0,0,0,18,1,Stimuli/testStimuliSquare/6u_s_10_s_2D.png,Stimuli/testStimuliSquare/6u_s_10_s_2D.png,0,9,1.112425,,,,,,,,
,,,,,,,19,female,A,2020-05-01_07h20.29.551,Remembering_Displays,2020.1.2,MacIntel,60,9,1,1,1,0.68848,0,1,1,2,1,Stimuli/testStimuliSquare/6u_s_8_2D.png,Stimuli/testStimuliSquare/6u_s_8_2D.png,0,9,0.628075,,,,,,,,
,,,,,,,19,female,A,2020-05-01_07h20.29.551,Remembering_Displays,2020.1.2,MacIntel,60,9,1,1,1,0.61806,0,2,2,0,1,Stimuli/testStimuliSquare/6u_s_7_2D.png,Stimuli/testStimuliSquare/6u_s_7_2D.png,0,9,0.734585,,,,,,,,
,,,,,,,19,female,A,2020-05-01_07h20.29.551,Remembering_Displays,2020.1.2,MacIntel,60,1,1,1,1,0.66783,0,3,3,5,1,Stimuli/testStimuliSquare/6u_s_9_2D.png,Stimuli/testStimuliSquare/6u_d_9_2D.png,1,1,0.730945,,,,,,,,
,,,,,,,19,female,A,2020-05-01_07h20.29.551,Remembering_Displays,2020.1.2,MacIntel,60,9,1,9,1,1.119525,0,4,4,16,1,Stimuli/testStimuliSquare/6u_s_9_s_2D.png,Stimuli/testStimuliSquare/6u_s_9_s_2D.png,0,9,0.852505,,,,,,,,
,,,,,,,19,female,A,2020-05-01_07h20.29.551,Remembering_Displays,2020.1.2,MacIntel,60,1,1,1,1,0.69258,0,5,5,7,1,Stimuli/testStimuliSquare/6u_s_10_2D.png,Stimuli/testStimuliSquare/6u_d_10_2D.png,1,1,0.82345,,,,,,,,
,,,,,,,19,female,A,2020-05-01_07h20.29.551,Remembering_Displays,2020.1.2,MacIntel,60,9,1,1,1,0.774635,0,6,6,20,1,Stimuli/testStimuliSquare/6u_s_11_s_2D.png,Stimuli/testStimuliSquare/6u_s_11_s_2D.png,0,9,0.90108,,,,,,,,
,,,,,,,19,female,A,2020-05-01_07h20.29.551,Remembering_Displays,2020.1.2,MacIntel,60,1,1,1,1,0.6757,0,7,7,9,1,Stimuli/testStimuliSquare/6u_s_11_2D.png,Stimuli/testStimuliSquare/6u_d_11_2D.png,1,1,0.83229,,,,,,,,
,,,,,,,19,female,A,2020-05-01_07h20.29.551,Remembering_Displays,2020.1.2,MacIntel,60,9,1,9,1,0.646145,0,8,8,4,1,Stimuli/testStimuliSquare/6u_s_9_2D.png,Stimuli/testStimuliSquare/6u_s_9_2D.png,0,9,1.152535,,,,,,,,
,,,,,,,19,female,A,2020-05-01_07h20.29.551,Remembering_Displays,2020.1.2,MacIntel,60,,0,9,1,1.447915,0,9,9,14,1,Stimuli/testStimuliSquare/6u_s_8_s_2D.png,Stimuli/testStimuliSquare/6u_s_8_s_2D.png,0,9,,,,,,,,,
,,,,,,,19,female,A,2020-05-01_07h20.29.551,Remembering_Displays,2020.1.2,MacIntel,60,1,1,1,0,1.35095,0,10,10,11,1,Stimuli/testStimuliSquare/6u_s_12_2D.png,Stimuli/testStimuliSquare/6u_d_12_2D.png,1,1,0.69731,,,,,,,,
,,,,,,,19,female,A,2020-05-01_07h20.29.551,Remembering_Displays,2020.1.2,MacIntel,60,1,1,9,1,0.83044,0,11,11,13,1,Stimuli/testStimuliSquare/6u_s_7_s_2D.png,Stimuli/testStimuliSquare/6u_d_7_s_2D.png,1,1,0.716235,,,,,,,,
,,,,,,,19,female,A,2020-05-01_07h20.29.551,Remembering_Displays,2020.1.2,MacIntel,60,1,1,1,1,0.71247,0,12,12,19,1,Stimuli/testStimuliSquare/6u_s_10_s_2D.png,Stimuli/testStimuliSquare/6u_d_10_s_2D.png,1,1,0.713395,,,,,,,,
,,,,,,,19,female,A,2020-05-01_07h20.29.551,Remembering_Displays,2020.1.2,MacIntel,60,9,1,9,1,0.535425,0,13,13,22,1,Stimuli/testStimuliSquare/6u_s_12_s_2D.png,Stimuli/testStimuliSquare/6u_s_12_s_2D.png,0,9,0.80283,,,,,,,,
,,,,,,,19,female,A,2020-05-01_07h20.29.551,Remembering_Displays,2020.1.2,MacIntel,60,9,1,1,1,0.562005,0,14,14,6,1,Stimuli/testStimuliSquare/6u_s_10_2D.png,Stimuli/testStimuliSquare/6u_s_10_2D.png,0,9,1.01872,,,,,,,,
,,,,,,,19,female,A,2020-05-01_07h20.29.551,Remembering_Displays,2020.1.2,MacIntel,60,1,1,9,1,2.72084,0,15,15,1,1,Stimuli/testStimuliSquare/6u_s_7_2D.png,Stimuli/testStimuliSquare/6u_d_7_2D.png,1,1,0.559745,,,,,,,,
,,,,,,,19,female,A,2020-05-01_07h20.29.551,Remembering_Displays,2020.1.2,MacIntel,60,1,1,1,1,1.568305,0,16,16,21,1,Stimuli/testStimuliSquare/6u_s_11_s_2D.png,Stimuli/testStimuliSquare/6u_d_11_s_2D.png,1,1,0.784305,,,,,,,,
,,,,,,,19,female,A,2020-05-01_07h20.29.551,Remembering_Displays,2020.1.2,MacIntel,60,1,0,1,1,4.505905,0,17,17,12,1,Stimuli/testStimuliSquare/6u_s_7_s_2D.png,Stimuli/testStimuliSquare/6u_s_7_s_2D.png,0,9,1.182645,,,,,,,,
,,,,,,,19,female,A,2020-05-01_07h20.29.551,Remembering_Displays,2020.1.2,MacIntel,60,1,1,9,1,0.45843,0,18,18,15,1,Stimuli/testStimuliSquare/6u_s_8_s_2D.png,Stimuli/testStimuliSquare/6u_d_8_s_2D.png,1,1,0.854085,,,,,,,,
,,,,,,,19,female,A,2020-05-01_07h20.29.551,Remembering_Displays,2020.1.2,MacIntel,60,1,1,9,1,0.495585,0,19,19,17,1,Stimuli/testStimuliSquare/6u_s_9_s_2D.png,Stimuli/testStimuliSquare/6u_d_9_s_2D.png,1,1,0.546585,,,,,,,,
,,,,,,,19,female,A,2020-05-01_07h20.29.551,Remembering_Displays,2020.1.2,MacIntel,60,1,0,1,1,1.01672,0,20,20,8,1,Stimuli/testStimuliSquare/6u_s_11_2D.png,Stimuli/testStimuliSquare/6u_s_11_2D.png,0,9,0.647985,,,,,,,,
,,,,,,,19,female,A,2020-05-01_07h20.29.551,Remembering_Displays,2020.1.2,MacIntel,60,1,1,1,1,1.301315,0,21,21,23,1,Stimuli/testStimuliSquare/6u_s_12_s_2D.png,Stimuli/testStimuliSquare/6u_d_12_s_2D.png,1,1,0.60011,,,,,,,,
,,,,,,,19,female,A,2020-05-01_07h20.29.551,Remembering_Displays,2020.1.2,MacIntel,60,9,1,1,1,0.64722,0,22,22,10,1,Stimuli/testStimuliSquare/6u_s_12_2D.png,Stimuli/testStimuliSquare/6u_s_12_2D.png,0,9,0.88501,,,,,,,,
,,,,,,,19,female,A,2020-05-01_07h20.29.551,Remembering_Displays,2020.1.2,MacIntel,60,1,1,1,1,1.43491,0,23,23,3,1,Stimuli/testStimuliSquare/6u_s_8_2D.png,Stimuli/testStimuliSquare/6u_d_8_2D.png,1,1,1.054065,,,,,,,,
,,,,,,,19,female,A,2020-05-01_07h20.29.551,Remembering_Displays,2020.1.2,MacIntel,60,,,,,,,,,,,,,,,,0,4,4,4,1,Stimuli/trialListSquares2.xlsx,Instructions/instr_18.png,Progress: 72 of 192 trials completed
,,,,,,,19,female,A,2020-05-01_07h20.29.551,Remembering_Displays,2020.1.2,MacIntel,60,1,1,1,1,0.691435,0,0,0,9,1,Stimuli/testStimuliCube/6u_s_17.png,Stimuli/testStimuliCube/6u_d_17.png,1,1,0.668025,,,,,,,,
,,,,,,,19,female,A,2020-05-01_07h20.29.551,Remembering_Displays,2020.1.2,MacIntel,60,,0,1,1,1.05031,0,1,1,0,1,Stimuli/testStimuliCube/6u_s_13.png,Stimuli/testStimuliCube/6u_s_13.png,0,9,,,,,,,,,
,,,,,,,19,female,A,2020-05-01_07h20.29.551,Remembering_Displays,2020.1.2,MacIntel,60,9,0,1,1,1.33748,0,2,2,23,1,Stimuli/testStimuliCube/6u_s_18_s.png,Stimuli/testStimuliCube/6u_d_18_s.png,1,1,1.053425,,,,,,,,
,,,,,,,19,female,A,2020-05-01_07h20.29.551,Remembering_Displays,2020.1.2,MacIntel,60,1,1,1,1,1.71819,0,3,3,21,1,Stimuli/testStimuliCube/6u_s_17_s.png,Stimuli/testStimuliCube/6u_d_17_s.png,1,1,0.568065,,,,,,,,
,,,,,,,19,female,A,2020-05-01_07h20.29.551,Remembering_Displays,2020.1.2,MacIntel,60,9,1,1,1,2.626875,0,4,4,4,1,Stimuli/testStimuliCube/6u_s_15.png,Stimuli/testStimuliCube/6u_s_15.png,0,9,0.71711,,,,,,,,
,,,,,,,19,female,A,2020-05-01_07h20.29.551,Remembering_Displays,2020.1.2,MacIntel,60,1,0,1,1,1.44938,0,5,5,14,1,Stimuli/testStimuliCube/6u_s_14_s.png,Stimuli/testStimuliCube/6u_s_14_s.png,0,9,1.06868,,,,,,,,
,,,,,,,19,female,A,2020-05-01_07h20.29.551,Remembering_Displays,2020.1.2,MacIntel,60,1,1,9,1,0.7955,0,6,6,5,1,Stimuli/testStimuliCube/6u_s_15.png,Stimuli/testStimuliCube/6u_d_15.png,1,1,0.61803,,,,,,,,
,,,,,,,19,female,A,2020-05-01_07h20.29.551,Remembering_Displays,2020.1.2,MacIntel,60,9,1,9,1,0.55739,0,7,7,8,1,Stimuli/testStimuliCube/6u_s_17.png,Stimuli/testStimuliCube/6u_s_17.png,0,9,0.65063,,,,,,,,
,,,,,,,19,female,A,2020-05-01_07h20.29.551,Remembering_Displays,2020.1.2,MacIntel,60,1,1,9,1,0.8202,0,8,8,19,1,Stimuli/testStimuliCube/6u_s_16_s.png,Stimuli/testStimuliCube/6u_d_16_s.png,1,1,0.802445,,,,,,,,
,,,,,,,19,female,A,2020-05-01_07h20.29.551,Remembering_Displays,2020.1.2,MacIntel,60,1,1,9,1,0.68193,0,9,9,11,1,Stimuli/testStimuliCube/6u_s_18.png,Stimuli/testStimuliCube/6u_d_18.png,1,1,0.744765,,,,,,,,
,,,,,,,19,female,A,2020-05-01_07h20.29.551,Remembering_Displays,2020.1.2,MacIntel,60,1,1,9,1,0.569145,0,10,10,1,1,Stimuli/testStimuliCube/6u_s_13.png,Stimuli/testStimuliCube/6u_d_13.png,1,1,0.565145,,,,,,,,
,,,,,,,19,female,A,2020-05-01_07h20.29.551,Remembering_Displays,2020.1.2,MacIntel,60,1,0,9,1,2.54491,0,11,11,16,1,Stimuli/testStimuliCube/6u_s_15_s.png,Stimuli/testStimuliCube/6u_s_15_s.png,0,9,0.754855,,,,,,,,
,,,,,,,19,female,A,2020-05-01_07h20.29.551,Remembering_Displays,2020.1.2,MacIntel,60,1,1,9,1,0.87076,0,12,12,17,1,Stimuli/testStimuliCube/6u_s_15_s.png,Stimuli/testStimuliCube/6u_d_15_s.png,1,1,0.925645,,,,,,,,
,,,,,,,19,female,A,2020-05-01_07h20.29.551,Remembering_Displays,2020.1.2,MacIntel,60,1,1,9,1,0.958785,0,13,13,7,1,Stimuli/testStimuliCube/6u_s_16.png,Stimuli/testStimuliCube/6u_d_16.png,1,1,0.767205,,,,,,,,
,,,,,,,19,female,A,2020-05-01_07h20.29.551,Remembering_Displays,2020.1.2,MacIntel,60,1,0,1,1,0.98279,0,14,14,18,1,Stimuli/testStimuliCube/6u_s_16_s.png,Stimuli/testStimuliCube/6u_s_16_s.png,0,9,0.98603,,,,,,,,
,,,,,,,19,female,A,2020-05-01_07h20.29.551,Remembering_Displays,2020.1.2,MacIntel,60,9,1,1,1,0.66724,0,15,15,6,1,Stimuli/testStimuliCube/6u_s_16.png,Stimuli/testStimuliCube/6u_s_16.png,0,9,1.37149,,,,,,,,
,,,,,,,19,female,A,2020-05-01_07h20.29.551,Remembering_Displays,2020.1.2,MacIntel,60,9,1,1,1,0.73862,0,16,16,2,1,Stimuli/testStimuliCube/6u_s_14.png,Stimuli/testStimuliCube/6u_s_14.png,0,9,0.95019,,,,,,,,
,,,,,,,19,female,A,2020-05-01_07h20.29.551,Remembering_Displays,2020.1.2,MacIntel,60,1,1,9,1,0.700775,0,17,17,3,1,Stimuli/testStimuliCube/6u_s_14.png,Stimuli/testStimuliCube/6u_d_14.png,1,1,0.618205,,,,,,,,
,,,,,,,19,female,A,2020-05-01_07h20.29.551,Remembering_Displays,2020.1.2,MacIntel,60,1,1,9,1,1.096425,0,18,18,15,1,Stimuli/testStimuliCube/6u_s_14_s.png,Stimuli/testStimuliCube/6u_d_14_s.png,1,1,0.71897,,,,,,,,
,,,,,,,19,female,A,2020-05-01_07h20.29.551,Remembering_Displays,2020.1.2,MacIntel,60,9,1,9,1,0.591445,0,19,19,22,1,Stimuli/testStimuliCube/6u_s_18_s.png,Stimuli/testStimuliCube/6u_s_18_s.png,0,9,0.742545,,,,,,,,
,,,,,,,19,female,A,2020-05-01_07h20.29.551,Remembering_Displays,2020.1.2,MacIntel,60,1,1,9,1,0.851635,0,20,20,13,1,Stimuli/testStimuliCube/6u_s_13_s.png,Stimuli/testStimuliCube/6u_d_13_s.png,1,1,0.701205,,,,,,,,
,,,,,,,19,female,A,2020-05-01_07h20.29.551,Remembering_Displays,2020.1.2,MacIntel,60,9,1,1,1,0.61386,0,21,21,10,1,Stimuli/testStimuliCube/6u_s_18.png,Stimuli/testStimuliCube/6u_s_18.png,0,9,0.667195,,,,,,,,
,,,,,,,19,female,A,2020-05-01_07h20.29.551,Remembering_Displays,2020.1.2,MacIntel,60,9,1,9,1,0.56609,0,22,22,20,1,Stimuli/testStimuliCube/6u_s_17_s.png,Stimuli/testStimuliCube/6u_s_17_s.png,0,9,0.74088,,,,,,,,
,,,,,,,19,female,A,2020-05-01_07h20.29.551,Remembering_Displays,2020.1.2,MacIntel,60,9,1,1,1,0.620005,0,23,23,12,1,Stimuli/testStimuliCube/6u_s_13_s.png,Stimuli/testStimuliCube/6u_s_13_s.png,0,9,1.016825,,,,,,,,
,,,,,,,19,female,A,2020-05-01_07h20.29.551,Remembering_Displays,2020.1.2,MacIntel,60,,,,,,,,,,,,,,,,0,5,5,5,1,Stimuli/trialListCubes3.xlsx,Instructions/instr_19.png,Progress: 96 of 192 trials completed
,,,,,,,19,female,A,2020-05-01_07h20.29.551,Remembering_Displays,2020.1.2,MacIntel,60,1,1,1,1,0.665235,0,0,0,11,1,Stimuli/testStimuliSquare/6u_s_18_2D.png,Stimuli/testStimuliSquare/6u_d_18_2D.png,1,1,0.636465,,,,,,,,
,,,,,,,19,female,A,2020-05-01_07h20.29.551,Remembering_Displays,2020.1.2,MacIntel,60,1,1,9,1,0.56277,0,1,1,17,1,Stimuli/testStimuliSquare/6u_s_15_s_2D.png,Stimuli/testStimuliSquare/6u_d_15_s_2D.png,1,1,0.733395,,,,,,,,
,,,,,,,19,female,A,2020-05-01_07h20.29.551,Remembering_Displays,2020.1.2,MacIntel,60,9,1,9,1,0.931935,0,2,2,20,1,Stimuli/testStimuliSquare/6u_s_17_s_2D.png,Stimuli/testStimuliSquare/6u_s_17_s_2D.png,0,9,0.71685,,,,,,,,
,,,,,,,19,female,A,2020-05-01_07h20.29.551,Remembering_Displays,2020.1.2,MacIntel,60,1,1,1,1,2.15602,0,3,3,21,1,Stimuli/testStimuliSquare/6u_s_17_s_2D.png,Stimuli/testStimuliSquare/6u_d_17_s_2D.png,1,1,0.532905,,,,,,,,
,,,,,,,19,female,A,2020-05-01_07h20.29.551,Remembering_Displays,2020.1.2,MacIntel,60,9,1,9,1,1.11968,0,4,4,2,1,Stimuli/testStimuliSquare/6u_s_14_2D.png,Stimuli/testStimuliSquare/6u_s_14_2D.png,0,9,0.6874,,,,,,,,
,,,,,,,19,female,A,2020-05-01_07h20.29.551,Remembering_Displays,2020.1.2,MacIntel,60,9,1,1,1,2.0346,0,5,5,16,1,Stimuli/testStimuliSquare/6u_s_15_s_2D.png,Stimuli/testStimuliSquare/6u_s_15_s_2D.png,0,9,0.85173,,,,,,,,
,,,,,,,19,female,A,2020-05-01_07h20.29.551,Remembering_Displays,2020.1.2,MacIntel,60,1,0,9,1,0.585615,0,6,6,6,1,Stimuli/testStimuliSquare/6u_s_16_2D.png,Stimuli/testStimuliSquare/6u_s_16_2D.png,0,9,0.535635,,,,,,,,
,,,,,,,19,female,A,2020-05-01_07h20.29.551,Remembering_Displays,2020.1.2,MacIntel,60,1,1,1,1,0.60305,0,7,7,9,1,Stimuli/testStimuliSquare/6u_s_17_2D.png,Stimuli/testStimuliSquare/6u_d_17_2D.png,1,1,0.837975,,,,,,,,
,,,,,,,19,female,A,2020-05-01_07h20.29.551,Remembering_Displays,2020.1.2,MacIntel,60,9,1,9,0,2.152065,0,8,8,8,1,Stimuli/testStimuliSquare/6u_s_17_2D.png,Stimuli/testStimuliSquare/6u_s_17_2D.png,0,9,0.62596,,,,,,,,
,,,,,,,19,female,A,2020-05-01_07h20.29.551,Remembering_Displays,2020.1.2,MacIntel,60,9,1,1,1,0.57096,0,9,9,0,1,Stimuli/testStimuliSquare/6u_s_13_2D.png,Stimuli/testStimuliSquare/6u_s_13_2D.png,0,9,0.511285,,,,,,,,
,,,,,,,19,female,A,2020-05-01_07h20.29.551,Remembering_Displays,2020.1.2,MacIntel,60,,0,1,1,1.13213,0,10,10,1,1,Stimuli/testStimuliSquare/6u_s_13_2D.png,Stimuli/testStimuliSquare/6u_d_13_2D.png,1,1,,,,,,,,,
,,,,,,,19,female,A,2020-05-01_07h20.29.551,Remembering_Displays,2020.1.2,MacIntel,60,1,1,1,1,0.842135,0,11,11,7,1,Stimuli/testStimuliSquare/6u_s_16_2D.png,Stimuli/testStimuliSquare/6u_d_16_2D.png,1,1,0.7381,,,,,,,,
,,,,,,,19,female,A,2020-05-01_07h20.29.551,Remembering_Displays,2020.1.2,MacIntel,60,1,1,1,1,0.467785,0,12,12,3,1,Stimuli/testStimuliSquare/6u_s_14_2D.png,Stimuli/testStimuliSquare/6u_d_14_2D.png,1,1,0.751425,,,,,,,,
,,,,,,,19,female,A,2020-05-01_07h20.29.551,Remembering_Displays,2020.1.2,MacIntel,60,9,1,1,1,0.509525,0,13,13,12,1,Stimuli/testStimuliSquare/6u_s_13_s_2D.png,Stimuli/testStimuliSquare/6u_s_13_s_2D.png,0,9,1.036325,,,,,,,,
,,,,,,,19,female,A,2020-05-01_07h20.29.551,Remembering_Displays,2020.1.2,MacIntel,60,9,1,1,1,1.38406,0,14,14,22,1,Stimuli/testStimuliSquare/6u_s_18_s_2D.png,Stimuli/testStimuliSquare/6u_s_18_s_2D.png,0,9,1.05388,,,,,,,,
,,,,,,,19,female,A,2020-05-01_07h20.29.551,Remembering_Displays,2020.1.2,MacIntel,60,1,1,1,1,0.60995,0,15,15,23,1,Stimuli/testStimuliSquare/6u_s_18_s_2D.png,Stimuli/testStimuliSquare/6u_d_18_s_2D.png,1,1,0.7561,,,,,,,,
,,,,,,,19,female,A,2020-05-01_07h20.29.551,Remembering_Displays,2020.1.2,MacIntel,60,1,1,9,1,1.107495,0,16,16,19,1,Stimuli/testStimuliSquare/6u_s_16_s_2D.png,Stimuli/testStimuliSquare/6u_d_16_s_2D.png,1,1,0.765915,,,,,,,,
,,,,,,,19,female,A,2020-05-01_07h20.29.551,Remembering_Displays,2020.1.2,MacIntel,60,9,1,1,1,0.7017,0,17,17,4,1,Stimuli/testStimuliSquare/6u_s_15_2D.png,Stimuli/testStimuliSquare/6u_s_15_2D.png,0,9,0.74909,,,,,,,,
,,,,,,,19,female,A,2020-05-01_07h20.29.551,Remembering_Displays,2020.1.2,MacIntel,60,9,1,9,1,1.073925,0,18,18,14,1,Stimuli/testStimuliSquare/6u_s_14_s_2D.png,Stimuli/testStimuliSquare/6u_s_14_s_2D.png,0,9,1.0327,,,,,,,,
,,,,,,,19,female,A,2020-05-01_07h20.29.551,Remembering_Displays,2020.1.2,MacIntel,60,9,1,9,1,0.562815,0,19,19,10,1,Stimuli/testStimuliSquare/6u_s_18_2D.png,Stimuli/testStimuliSquare/6u_s_18_2D.png,0,9,0.68846,,,,,,,,
,,,,,,,19,female,A,2020-05-01_07h20.29.551,Remembering_Displays,2020.1.2,MacIntel,60,1,1,1,1,1.01436,0,20,20,5,1,Stimuli/testStimuliSquare/6u_s_15_2D.png,Stimuli/testStimuliSquare/6u_d_15_2D.png,1,1,0.622035,,,,,,,,
,,,,,,,19,female,A,2020-05-01_07h20.29.551,Remembering_Displays,2020.1.2,MacIntel,60,1,1,9,1,0.729255,0,21,21,15,1,Stimuli/testStimuliSquare/6u_s_14_s_2D.png,Stimuli/testStimuliSquare/6u_d_14_s_2D.png,1,1,0.76121,,,,,,,,
,,,,,,,19,female,A,2020-05-01_07h20.29.551,Remembering_Displays,2020.1.2,MacIntel,60,1,1,9,1,0.684445,0,22,22,13,1,Stimuli/testStimuliSquare/6u_s_13_s_2D.png,Stimuli/testStimuliSquare/6u_d_13_s_2D.png,1,1,0.599675,,,,,,,,
,,,,,,,19,female,A,2020-05-01_07h20.29.551,Remembering_Displays,2020.1.2,MacIntel,60,9,1,1,1,0.51871,0,23,23,18,1,Stimuli/testStimuliSquare/6u_s_16_s_2D.png,Stimuli/testStimuliSquare/6u_s_16_s_2D.png,0,9,0.835685,,,,,,,,
,,,,,,,19,female,A,2020-05-01_07h20.29.551,Remembering_Displays,2020.1.2,MacIntel,60,,,,,,,,,,,,,,,,0,6,6,6,1,Stimuli/trialListSquares3.xlsx,Instructions/instr_18.png,Progress: 120 of 192 trials completed
,,,,,,,19,female,A,2020-05-01_07h20.29.551,Remembering_Displays,2020.1.2,MacIntel,60,9,0,1,1,0.94555,0,0,0,23,1,Stimuli/testStimuliCube/6u_s_12_s.png,Stimuli/testStimuliCube/6u_d_12_s.png,1,1,0.935095,,,,,,,,
,,,,,,,19,female,A,2020-05-01_07h20.29.551,Remembering_Displays,2020.1.2,MacIntel,60,1,0,9,1,0.596315,0,1,1,20,1,Stimuli/testStimuliCube/6u_s_11_s.png,Stimuli/testStimuliCube/6u_s_11_s.png,0,9,0.73752,,,,,,,,
,,,,,,,19,female,A,2020-05-01_07h20.29.551,Remembering_Displays,2020.1.2,MacIntel,60,9,1,1,1,0.42344,0,2,2,14,1,Stimuli/testStimuliCube/6u_s_8_s.png,Stimuli/testStimuliCube/6u_s_8_s.png,0,9,0.520735,,,,,,,,
,,,,,,,19,female,A,2020-05-01_07h20.29.551,Remembering_Displays,2020.1.2,MacIntel,60,1,1,9,1,0.66726,0,3,3,21,1,Stimuli/testStimuliCube/6u_s_11_s.png,Stimuli/testStimuliCube/6u_d_11_s.png,1,1,0.684145,,,,,,,,
,,,,,,,19,female,A,2020-05-01_07h20.29.551,Remembering_Displays,2020.1.2,MacIntel,60,,0,1,1,0.968355,0,4,4,5,1,Stimuli/testStimuliCube/6u_s_9.png,Stimuli/testStimuliCube/6u_d_9.png,1,1,,,,,,,,,
,,,,,,,19,female,A,2020-05-01_07h20.29.551,Remembering_Displays,2020.1.2,MacIntel,60,9,1,9,1,0.829135,0,5,5,2,1,Stimuli/testStimuliCube/6u_s_8.png,Stimuli/testStimuliCube/6u_s_8.png,0,9,1.104255,,,,,,,,
,,,,,,,19,female,A,2020-05-01_07h20.29.551,Remembering_Displays,2020.1.2,MacIntel,60,9,1,1,1,1.15146,0,6,6,0,1,Stimuli/testStimuliCube/6u_s_7.png,Stimuli/testStimuliCube/6u_s_7.png,0,9,0.81506,,,,,,,,
,,,,,,,19,female,A,2020-05-01_07h20.29.551,Remembering_Displays,2020.1.2,MacIntel,60,1,1,9,1,0.842045,0,7,7,7,1,Stimuli/testStimuliCube/6u_s_10.png,Stimuli/testStimuliCube/6u_d_10.png,1,1,0.647085,,,,,,,,
,,,,,,,19,female,A,2020-05-01_07h20.29.551,Remembering_Displays,2020.1.2,MacIntel,60,1,1,9,0,0.7197,0,8,8,19,1,Stimuli/testStimuliCube/6u_s_10_s.png,Stimuli/testStimuliCube/6u_d_10_s.png,1,1,0.8531,,,,,,,,
,,,,,,,19,female,A,2020-05-01_07h20.29.551,Remembering_Displays,2020.1.2,MacIntel,60,1,1,9,1,0.81959,0,9,9,1,1,Stimuli/testStimuliCube/6u_s_7.png,Stimuli/testStimuliCube/6u_d_7.png,1,1,0.556785,,,,,,,,
,,,,,,,19,female,A,2020-05-01_07h20.29.551,Remembering_Displays,2020.1.2,MacIntel,60,9,1,9,1,0.8449,0,10,10,22,1,Stimuli/testStimuliCube/6u_s_12_s.png,Stimuli/testStimuliCube/6u_s_12_s.png,0,9,0.77595,,,,,,,,
,,,,,,,19,female,A,2020-05-01_07h20.29.551,Remembering_Displays,2020.1.2,MacIntel,60,1,1,9,1,0.681755,0,11,11,9,1,Stimuli/testStimuliCube/6u_s_11.png,Stimuli/testStimuliCube/6u_d_11.png,1,1,0.79918,,,,,,,,
,,,,,,,19,female,A,2020-05-01_07h20.29.551,Remembering_Displays,2020.1.2,MacIntel,60,1,1,1,1,1.294185,0,12,12,15,1,Stimuli/testStimuliCube/6u_s_8_s.png,Stimuli/testStimuliCube/6u_d_8_s.png,1,1,0.760145,,,,,,,,
,,,,,,,19,female,A,2020-05-01_07h20.29.551,Remembering_Displays,2020.1.2,MacIntel,60,9,1,9,1,0.501325,0,13,13,12,1,Stimuli/testStimuliCube/6u_s_7_s.png,Stimuli/testStimuliCube/6u_s_7_s.png,0,9,1.178605,,,,,,,,
,,,,,,,19,female,A,2020-05-01_07h20.29.551,Remembering_Displays,2020.1.2,MacIntel,60,1,1,9,1,0.603155,0,14,14,3,1,Stimuli/testStimuliCube/6u_s_8.png,Stimuli/testStimuliCube/6u_d_8.png,1,1,0.63332,,,,,,,,
,,,,,,,19,female,A,2020-05-01_07h20.29.551,Remembering_Displays,2020.1.2,MacIntel,60,9,1,1,1,0.50064,0,15,15,6,1,Stimuli/testStimuliCube/6u_s_10.png,Stimuli/testStimuliCube/6u_s_10.png,0,9,0.686155,,,,,,,,
,,,,,,,19,female,A,2020-05-01_07h20.29.551,Remembering_Displays,2020.1.2,MacIntel,60,1,1,1,1,1.1522,0,16,16,17,1,Stimuli/testStimuliCube/6u_s_9_s.png,Stimuli/testStimuliCube/6u_d_9_s.png,1,1,0.713295,,,,,,,,
,,,,,,,19,female,A,2020-05-01_07h20.29.551,Remembering_Displays,2020.1.2,MacIntel,60,9,1,9,1,0.75054,0,17,17,16,1,Stimuli/testStimuliCube/6u_s_9_s.png,Stimuli/testStimuliCube/6u_s_9_s.png,0,9,0.84417,,,,,,,,
,,,,,,,19,female,A,2020-05-01_07h20.29.551,Remembering_Displays,2020.1.2,MacIntel,60,1,1,1,1,0.63451,0,18,18,11,1,Stimuli/testStimuliCube/6u_s_12.png,Stimuli/testStimuliCube/6u_d_12.png,1,1,0.66784,,,,,,,,
,,,,,,,19,female,A,2020-05-01_07h20.29.551,Remembering_Displays,2020.1.2,MacIntel,60,9,1,1,1,0.621015,0,19,19,4,1,Stimuli/testStimuliCube/6u_s_9.png,Stimuli/testStimuliCube/6u_s_9.png,0,9,0.75061,,,,,,,,
,,,,,,,19,female,A,2020-05-01_07h20.29.551,Remembering_Displays,2020.1.2,MacIntel,60,9,1,9,1,0.787785,0,20,20,10,1,Stimuli/testStimuliCube/6u_s_12.png,Stimuli/testStimuliCube/6u_s_12.png,0,9,0.736465,,,,,,,,
,,,,,,,19,female,A,2020-05-01_07h20.29.551,Remembering_Displays,2020.1.2,MacIntel,60,9,1,1,1,0.971975,0,21,21,8,1,Stimuli/testStimuliCube/6u_s_11.png,Stimuli/testStimuliCube/6u_s_11.png,0,9,0.75253,,,,,,,,
,,,,,,,19,female,A,2020-05-01_07h20.29.551,Remembering_Displays,2020.1.2,MacIntel,60,9,1,9,1,0.639175,0,22,22,18,1,Stimuli/testStimuliCube/6u_s_10_s.png,Stimuli/testStimuliCube/6u_s_10_s.png,0,9,0.83166,,,,,,,,
,,,,,,,19,female,A,2020-05-01_07h20.29.551,Remembering_Displays,2020.1.2,MacIntel,60,1,1,9,1,1.136595,0,23,23,13,1,Stimuli/testStimuliCube/6u_s_7_s.png,Stimuli/testStimuliCube/6u_d_7_s.png,1,1,0.92441,,,,,,,,
,,,,,,,19,female,A,2020-05-01_07h20.29.551,Remembering_Displays,2020.1.2,MacIntel,60,,,,,,,,,,,,,,,,0,7,7,7,1,Stimuli/trialListCubes2.xlsx,Instructions/instr_19.png,Progress: 144 of 192 trials completed
,,,,,,,19,female,A,2020-05-01_07h20.29.551,Remembering_Displays,2020.1.2,MacIntel,60,1,1,1,1,0.843465,0,0,0,19,1,Stimuli/testStimuliSquare/6u_s_22_s_2D.png,Stimuli/testStimuliSquare/6u_d_22_s_2D.png,1,1,0.6054,,,,,,,,
,,,,,,,19,female,A,2020-05-01_07h20.29.551,Remembering_Displays,2020.1.2,MacIntel,60,1,1,9,1,0.74466,0,1,1,21,1,Stimuli/testStimuliSquare/6u_s_23_s_2D.png,Stimuli/testStimuliSquare/6u_d_23_s_2D.png,1,1,0.505075,,,,,,,,
,,,,,,,19,female,A,2020-05-01_07h20.29.551,Remembering_Displays,2020.1.2,MacIntel,60,9,1,9,1,1.088385,0,2,2,12,1,Stimuli/testStimuliSquare/6u_s_19_s_2D.png,Stimuli/testStimuliSquare/6u_s_19_s_2D.png,0,9,0.825625,,,,,,,,
,,,,,,,19,female,A,2020-05-01_07h20.29.551,Remembering_Displays,2020.1.2,MacIntel,60,,0,1,1,1.664735,0,3,3,14,1,Stimuli/testStimuliSquare/6u_s_20_s_2D.png,Stimuli/testStimuliSquare/6u_s_20_s_2D.png,0,9,,,,,,,,,
,,,,,,,19,female,A,2020-05-01_07h20.29.551,Remembering_Displays,2020.1.2,MacIntel,60,9,1,1,1,0.68557,0,4,4,2,1,Stimuli/testStimuliSquare/6u_s_20_2D.png,Stimuli/testStimuliSquare/6u_s_20_2D.png,0,9,0.845655,,,,,,,,
,,,,,,,19,female,A,2020-05-01_07h20.29.551,Remembering_Displays,2020.1.2,MacIntel,60,9,1,1,1,0.850425,0,5,5,0,1,Stimuli/testStimuliSquare/6u_s_19_2D.png,Stimuli/testStimuliSquare/6u_s_19_2D.png,0,9,0.659975,,,,,,,,
,,,,,,,19,female,A,2020-05-01_07h20.29.551,Remembering_Displays,2020.1.2,MacIntel,60,9,1,1,0,1.668725,0,6,6,18,1,Stimuli/testStimuliSquare/6u_s_22_s_2D.png,Stimuli/testStimuliSquare/6u_s_22_s_2D.png,0,9,0.902975,,,,,,,,
,,,,,,,19,female,A,2020-05-01_07h20.29.551,Remembering_Displays,2020.1.2,MacIntel,60,1,1,9,1,0.612685,0,7,7,7,1,Stimuli/testStimuliSquare/6u_s_22_2D.png,Stimuli/testStimuliSquare/6u_d_22_2D.png,1,1,0.91907,,,,,,,,
,,,,,,,19,female,A,2020-05-01_07h20.29.551,Remembering_Displays,2020.1.2,MacIntel,60,1,1,1,1,0.913145,0,8,8,9,1,Stimuli/testStimuliSquare/6u_s_23_2D.png,Stimuli/testStimuliSquare/6u_d_23_2D.png,1,1,0.756925,,,,,,,,
,,,,,,,19,female,A,2020-05-01_07h20.29.551,Remembering_Displays,2020.1.2,MacIntel,60,9,1,1,1,1.322405,0,9,9,20,1,Stimuli/testStimuliSquare/6u_s_23_s_2D.png,Stimuli/testStimuliSquare/6u_s_23_s_2D.png,0,9,0.84264,,,,,,,,
,,,,,,,19,female,A,2020-05-01_07h20.29.551,Remembering_Displays,2020.1.2,MacIntel,60,1,1,9,1,0.63713,0,10,10,13,1,Stimuli/testStimuliSquare/6u_s_19_s_2D.png,Stimuli/testStimuliSquare/6u_d_19_s_2D.png,1,1,0.615835,,,,,,,,
,,,,,,,19,female,A,2020-05-01_07h20.29.551,Remembering_Displays,2020.1.2,MacIntel,60,1,1,9,1,0.9805,0,11,11,5,1,Stimuli/testStimuliSquare/6u_s_21_2D.png,Stimuli/testStimuliSquare/6u_d_21_2D.png,1,1,1.12352,,,,,,,,
,,,,,,,19,female,A,2020-05-01_07h20.29.551,Remembering_Displays,2020.1.2,MacIntel,60,1,1,1,1,1.43808,0,12,12,1,1,Stimuli/testStimuliSquare/6u_s_19_2D.png,Stimuli/testStimuliSquare/6u_d_19_2D.png,1,1,1.002975,,,,,,,,
,,,,,,,19,female,A,2020-05-01_07h20.29.551,Remembering_Displays,2020.1.2,MacIntel,60,,0,1,1,0.889425,0,13,13,16,1,Stimuli/testStimuliSquare/6u_s_21_s_2D.png,Stimuli/testStimuliSquare/6u_s_21_s_2D.png,0,9,,,,,,,,,
,,,,,,,19,female,A,2020-05-01_07h20.29.551,Remembering_Displays,2020.1.2,MacIntel,60,1,1,9,1,0.662275,0,14,14,17,1,Stimuli/testStimuliSquare/6u_s_21_s_2D.png,Stimuli/testStimuliSquare/6u_d_21_s_2D.png,1,1,1.083745,,,,,,,,
,,,,,,,19,female,A,2020-05-01_07h20.29.551,Remembering_Displays,2020.1.2,MacIntel,60,9,1,1,1,0.66738,0,15,15,8,1,Stimuli/testStimuliSquare/6u_s_23_2D.png,Stimuli/testStimuliSquare/6u_s_23_2D.png,0,9,0.79466,,,,,,,,
,,,,,,,19,female,A,2020-05-01_07h20.29.551,Remembering_Displays,2020.1.2,MacIntel,60,9,1,1,1,0.592465,0,16,16,10,1,Stimuli/testStimuliSquare/6u_s_24_2D.png,Stimuli/testStimuliSquare/6u_s_24_2D.png,0,9,0.85044,,,,,,,,
,,,,,,,19,female,A,2020-05-01_07h20.29.551,Remembering_Displays,2020.1.2,MacIntel,60,9,0,1,1,0.639885,0,17,17,15,1,Stimuli/testStimuliSquare/6u_s_20_s_2D.png,Stimuli/testStimuliSquare/6u_d_20_s_2D.png,1,1,1.11875,,,,,,,,
,,,,,,,19,female,A,2020-05-01_07h20.29.551,Remembering_Displays,2020.1.2,MacIntel,60,1,1,1,1,1.270185,0,18,18,3,1,Stimuli/testStimuliSquare/6u_s_20_2D.png,Stimuli/testStimuliSquare/6u_d_20_2D.png,1,1,0.82684,,,,,,,,
,,,,,,,19,female,A,2020-05-01_07h20.29.551,Remembering_Displays,2020.1.2,MacIntel,60,9,1,1,0,1.12404,0,19,19,4,1,Stimuli/testStimuliSquare/6u_s_21_2D.png,Stimuli/testStimuliSquare/6u_s_21_2D.png,0,9,0.51937,,,,,,,,
,,,,,,,19,female,A,2020-05-01_07h20.29.551,Remembering_Displays,2020.1.2,MacIntel,60,1,1,1,1,0.80013,0,20,20,11,1,Stimuli/testStimuliSquare/6u_s_24_2D.png,Stimuli/testStimuliSquare/6u_d_24_2D.png,1,1,0.700625,,,,,,,,
,,,,,,,19,female,A,2020-05-01_07h20.29.551,Remembering_Displays,2020.1.2,MacIntel,60,1,1,1,1,1.316435,0,21,21,23,1,Stimuli/testStimuliSquare/6u_s_24_s_2D.png,Stimuli/testStimuliSquare/6u_d_24_s_2D.png,1,1,1.029605,,,,,,,,
,,,,,,,19,female,A,2020-05-01_07h20.29.551,Remembering_Displays,2020.1.2,MacIntel,60,1,0,9,1,0.667585,0,22,22,6,1,Stimuli/testStimuliSquare/6u_s_22_2D.png,Stimuli/testStimuliSquare/6u_s_22_2D.png,0,9,0.567415,,,,,,,,
,,,,,,,19,female,A,2020-05-01_07h20.29.551,Remembering_Displays,2020.1.2,MacIntel,60,9,1,1,1,0.920915,0,23,23,22,1,Stimuli/testStimuliSquare/6u_s_24_s_2D.png,Stimuli/testStimuliSquare/6u_s_24_s_2D.png,0,9,0.8506,,,,,,,,
,,,,,,,19,female,A,2020-05-01_07h20.29.551,Remembering_Displays,2020.1.2,MacIntel,60,,,,,,,,,,,,,,,,0,8,8,8,1,Stimuli/trialListSquares4.xlsx,Instructions/instr_18.png,Progress: 168 of 192 trials completed
,,,,,,,19,female,A,2020-05-01_07h20.29.551,Remembering_Displays,2020.1.2,MacIntel,60,1,1,9,1,0.62986,0,0,0,5,1,Stimuli/testStimuliCube/6u_s_3.png,Stimuli/testStimuliCube/6u_d_3.png,1,1,1.17954,,,,,,,,
,,,,,,,19,female,A,2020-05-01_07h20.29.551,Remembering_Displays,2020.1.2,MacIntel,60,9,1,9,1,0.540305,0,1,1,6,1,Stimuli/testStimuliCube/6u_s_4.png,Stimuli/testStimuliCube/6u_s_4.png,0,9,0.91856,,,,,,,,
,,,,,,,19,female,A,2020-05-01_07h20.29.551,Remembering_Displays,2020.1.2,MacIntel,60,1,0,1,1,0.972855,0,2,2,8,1,Stimuli/testStimuliCube/6u_s_5.png,Stimuli/testStimuliCube/6u_s_5.png,0,9,1.049765,,,,,,,,
,,,,,,,19,female,A,2020-05-01_07h20.29.551,Remembering_Displays,2020.1.2,MacIntel,60,9,1,1,1,0.48534,0,3,3,14,1,Stimuli/testStimuliCube/6u_s_2_s.png,Stimuli/testStimuliCube/6u_s_2_s.png,0,9,0.952965,,,,,,,,
,,,,,,,19,female,A,2020-05-01_07h20.29.551,Remembering_Displays,2020.1.2,MacIntel,60,1,0,9,1,0.667825,0,4,4,12,1,Stimuli/testStimuliCube/6u_s_1_s.png,Stimuli/testStimuliCube/6u_s_1_s.png,0,9,0.85206,,,,,,,,
,,,,,,,19,female,A,2020-05-01_07h20.29.551,Remembering_Displays,2020.1.2,MacIntel,60,1,1,1,1,0.602965,0,5,5,13,1,Stimuli/testStimuliCube/6u_s_1_s.png,Stimuli/testStimuliCube/6u_d_1_s.png,1,1,0.614625,,,,,,,,
,,,,,,,19,female,A,2020-05-01_07h20.29.551,Remembering_Displays,2020.1.2,MacIntel,60,1,1,1,1,0.44862,0,6,6,1,1,Stimuli/testStimuliCube/6u_s_1.png,Stimuli/testStimuliCube/6u_d_1.png,1,1,0.547045,,,,,,,,
,,,,,,,19,female,A,2020-05-01_07h20.29.551,Remembering_Displays,2020.1.2,MacIntel,60,1,1,9,1,0.930085,0,7,7,19,1,Stimuli/testStimuliCube/6u_s_4_s.png,Stimuli/testStimuliCube/6u_d_4_s.png,1,1,0.68546,,,,,,,,
,,,,,,,19,female,A,2020-05-01_07h20.29.551,Remembering_Displays,2020.1.2,MacIntel,60,9,1,1,1,0.86938,0,8,8,2,1,Stimuli/testStimuliCube/6u_s_2.png,Stimuli/testStimuliCube/6u_s_2.png,0,9,0.664195,,,,,,,,
,,,,,,,19,female,A,2020-05-01_07h20.29.551,Remembering_Displays,2020.1.2,MacIntel,60,1,1,1,1,0.72004,0,9,9,7,1,Stimuli/testStimuliCube/6u_s_4.png,Stimuli/testStimuliCube/6u_d_4.png,1,1,0.63515,,,,,,,,
,,,,,,,19,female,A,2020-05-01_07h20.29.551,Remembering_Displays,2020.1.2,MacIntel,60,1,1,9,1,0.709675,0,10,10,17,1,Stimuli/testStimuliCube/6u_s_3_s.png,Stimuli/testStimuliCube/6u_d_3_s.png,1,1,1.23213,,,,,,,,
,,,,,,,19,female,A,2020-05-01_07h20.29.551,Remembering_Displays,2020.1.2,MacIntel,60,9,1,9,1,0.693395,0,11,11,16,1,Stimuli/testStimuliCube/6u_s_3_s.png,Stimuli/testStimuliCube/6u_s_3_s.png,0,9,0.8163,,,,,,,,
,,,,,,,19,female,A,2020-05-01_07h20.29.551,Remembering_Displays,2020.1.2,MacIntel,60,9,1,9,1,0.50849,0,12,12,4,1,Stimuli/testStimuliCube/6u_s_3.png,Stimuli/testStimuliCube/6u_s_3.png,0,9,1.40179,,,,,,,,
,,,,,,,19,female,A,2020-05-01_07h20.29.551,Remembering_Displays,2020.1.2,MacIntel,60,9,0,9,1,0.452635,0,13,13,21,1,Stimuli/testStimuliCube/6u_s_5_s.png,Stimuli/testStimuliCube/6u_d_5_s.png,1,1,0.683945,,,,,,,,
,,,,,,,19,female,A,2020-05-01_07h20.29.551,Remembering_Displays,2020.1.2,MacIntel,60,9,1,1,1,0.740915,0,14,14,20,1,Stimuli/testStimuliCube/6u_s_5_s.png,Stimuli/testStimuliCube/6u_s_5_s.png,0,9,1.019195,,,,,,,,
,,,,,,,19,female,A,2020-05-01_07h20.29.551,Remembering_Displays,2020.1.2,MacIntel,60,9,1,1,1,0.549055,0,15,15,0,1,Stimuli/testStimuliCube/6u_s_1.png,Stimuli/testStimuliCube/6u_s_1.png,0,9,0.578305,,,,,,,,
,,,,,,,19,female,A,2020-05-01_07h20.29.551,Remembering_Displays,2020.1.2,MacIntel,60,9,1,1,1,1.052475,0,16,16,10,1,Stimuli/testStimuliCube/6u_s_6.png,Stimuli/testStimuliCube/6u_s_6.png,0,9,0.737035,,,,,,,,
,,,,,,,19,female,A,2020-05-01_07h20.29.551,Remembering_Displays,2020.1.2,MacIntel,60,1,1,1,1,0.640675,0,17,17,11,1,Stimuli/testStimuliCube/6u_s_6.png,Stimuli/testStimuliCube/6u_d_6.png,1,1,0.64667,,,,,,,,
,,,,,,,19,female,A,2020-05-01_07h20.29.551,Remembering_Displays,2020.1.2,MacIntel,60,1,1,9,0,0.66732,0,18,18,3,1,Stimuli/testStimuliCube/6u_s_2.png,Stimuli/testStimuliCube/6u_d_2.png,1,1,1.23439,,,,,,,,
,,,,,,,19,female,A,2020-05-01_07h20.29.551,Remembering_Displays,2020.1.2,MacIntel,60,9,0,9,1,1.055265,0,19,19,9,1,Stimuli/testStimuliCube/6u_s_5.png,Stimuli/testStimuliCube/6u_d_5.png,1,1,1.068235,,,,,,,,
,,,,,,,19,female,A,2020-05-01_07h20.29.551,Remembering_Displays,2020.1.2,MacIntel,60,1,1,9,0,1.11797,0,20,20,23,1,Stimuli/testStimuliCube/6u_s_6_s.png,Stimuli/testStimuliCube/6u_d_6_s.png,1,1,0.668205,,,,,,,,
,,,,,,,19,female,A,2020-05-01_07h20.29.551,Remembering_Displays,2020.1.2,MacIntel,60,9,1,1,0,0.458795,0,21,21,18,1,Stimuli/testStimuliCube/6u_s_4_s.png,Stimuli/testStimuliCube/6u_s_4_s.png,0,9,0.601585,,,,,,,,
,,,,,,,19,female,A,2020-05-01_07h20.29.551,Remembering_Displays,2020.1.2,MacIntel,60,1,1,9,1,0.882225,0,22,22,15,1,Stimuli/testStimuliCube/6u_s_2_s.png,Stimuli/testStimuliCube/6u_d_2_s.png,1,1,0.74514,,,,,,,,
,,,,,,,19,female,A,2020-05-01_07h20.29.551,Remembering_Displays,2020.1.2,MacIntel,60,1,0,9,1,0.90563,0,23,23,22,1,Stimuli/testStimuliCube/6u_s_6_s.png,Stimuli/testStimuliCube/6u_s_6_s.png,0,9,1.12322,,,,,,,,