instr_Loop.thisRepN,instr_Loop.thisTrialN,instr_Loop.thisN,instr_Loop.thisIndex,instr_Loop.ran,instructionImage,time,age,sex (female/male),order,date,expName,psychopyVersion,OS,frameRate,struc_judge_respond.keys,struc_judge_respond.corr,struc_judge_respond.rt,dual_respond.keys,dual_respond.corr,dual_respond.rt,trials.thisRepN,trials.thisTrialN,trials.thisN,trials.thisIndex,trials.ran,stim1,stim2,isAnyChange,corrAns,selectBlock.thisRepN,selectBlock.thisTrialN,selectBlock.thisN,selectBlock.thisIndex,selectBlock.ran,condsFile,condsImage,remaining
0,0,0,0,1,Instructions/instr_1.png,5,19,female,A,2020-05-01_15h12.31.935,Remembering_Displays,2020.1.2,MacIntel,60,,,,,,,,,,,,,,,,,,,,,,,
0,1,1,1,1,Instructions/instr_2.png,3,19,female,A,2020-05-01_15h12.31.935,Remembering_Displays,2020.1.2,MacIntel,60,,,,,,,,,,,,,,,,,,,,,,,
0,2,2,2,1,Instructions/instr_3.png,5,19,female,A,2020-05-01_15h12.31.935,Remembering_Displays,2020.1.2,MacIntel,60,,,,,,,,,,,,,,,,,,,,,,,
0,3,3,3,1,Instructions/instr_4.png,1,19,female,A,2020-05-01_15h12.31.935,Remembering_Displays,2020.1.2,MacIntel,60,,,,,,,,,,,,,,,,,,,,,,,
0,4,4,4,1,Instructions/instr_5.png,1,19,female,A,2020-05-01_15h12.31.935,Remembering_Displays,2020.1.2,MacIntel,60,,,,,,,,,,,,,,,,,,,,,,,
0,5,5,5,1,Instructions/instr_6.png,1,19,female,A,2020-05-01_15h12.31.935,Remembering_Displays,2020.1.2,MacIntel,60,,,,,,,,,,,,,,,,,,,,,,,
0,6,6,6,1,Instructions/instr_7.png,1,19,female,A,2020-05-01_15h12.31.935,Remembering_Displays,2020.1.2,MacIntel,60,,,,,,,,,,,,,,,,,,,,,,,
0,7,7,7,1,Instructions/instr_8.png,3,19,female,A,2020-05-01_15h12.31.935,Remembering_Displays,2020.1.2,MacIntel,60,,,,,,,,,,,,,,,,,,,,,,,
0,8,8,8,1,Instructions/instr_9.png,3,19,female,A,2020-05-01_15h12.31.935,Remembering_Displays,2020.1.2,MacIntel,60,,,,,,,,,,,,,,,,,,,,,,,
0,9,9,9,1,Instructions/instr_10.png,3,19,female,A,2020-05-01_15h12.31.935,Remembering_Displays,2020.1.2,MacIntel,60,,,,,,,,,,,,,,,,,,,,,,,
0,10,10,10,1,Instructions/instr_11.png,3,19,female,A,2020-05-01_15h12.31.935,Remembering_Displays,2020.1.2,MacIntel,60,,,,,,,,,,,,,,,,,,,,,,,
0,11,11,11,1,Instructions/instr_12.png,3,19,female,A,2020-05-01_15h12.31.935,Remembering_Displays,2020.1.2,MacIntel,60,,,,,,,,,,,,,,,,,,,,,,,
0,12,12,12,1,Instructions/instr_13.png,3,19,female,A,2020-05-01_15h12.31.935,Remembering_Displays,2020.1.2,MacIntel,60,,,,,,,,,,,,,,,,,,,,,,,
0,13,13,13,1,Instructions/instr_14.png,3,19,female,A,2020-05-01_15h12.31.935,Remembering_Displays,2020.1.2,MacIntel,60,,,,,,,,,,,,,,,,,,,,,,,
0,14,14,14,1,Instructions/instr_15.png,3,19,female,A,2020-05-01_15h12.31.935,Remembering_Displays,2020.1.2,MacIntel,60,,,,,,,,,,,,,,,,,,,,,,,
0,15,15,15,1,Instructions/instr_16.png,5,19,female,A,2020-05-01_15h12.31.935,Remembering_Displays,2020.1.2,MacIntel,60,,,,,,,,,,,,,,,,,,,,,,,
,,,,,,,19,female,A,2020-05-01_15h12.31.935,Remembering_Displays,2020.1.2,MacIntel,60,9,1,1.360235,1,1,10.73211,0,0,0,2,1,Stimuli/practiceStimuliSquare/practice3_s.png,Stimuli/practiceStimuliSquare/practice3_s.png,0,9,,,,,,,,
,,,,,,,19,female,A,2020-05-01_15h12.31.935,Remembering_Displays,2020.1.2,MacIntel,60,9,1,1.03937,1,1,1.67511,0,1,1,5,1,Stimuli/practiceStimuliSquare/practice2_s.png,Stimuli/practiceStimuliSquare/practice2_s.png,0,9,,,,,,,,
,,,,,,,19,female,A,2020-05-01_15h12.31.935,Remembering_Displays,2020.1.2,MacIntel,60,,0,,1,1,2.34352,0,2,2,3,1,Stimuli/practiceStimuliSquare/practice4_s.png,Stimuli/practiceStimuliSquare/practice4_d.png,1,1,,,,,,,,
,,,,,,,19,female,A,2020-05-01_15h12.31.935,Remembering_Displays,2020.1.2,MacIntel,60,1,1,0.801335,1,1,3.55181,0,3,3,4,1,Stimuli/practiceStimuliSquare/practice1_s.png,Stimuli/practiceStimuliSquare/practice1_d.png,1,1,,,,,,,,
,,,,,,,19,female,A,2020-05-01_15h12.31.935,Remembering_Displays,2020.1.2,MacIntel,60,9,0,0.853265,9,1,1.783035,0,4,4,1,1,Stimuli/practiceStimuliSquare/practice2_s.png,Stimuli/practiceStimuliSquare/practice2_d.png,1,1,,,,,,,,
,,,,,,,19,female,A,2020-05-01_15h12.31.935,Remembering_Displays,2020.1.2,MacIntel,60,9,1,0.822495,9,1,1.607335,0,5,5,0,1,Stimuli/practiceStimuliSquare/practice1_s.png,Stimuli/practiceStimuliSquare/practice1_s.png,0,9,,,,,,,,
,,,,,,,19,female,A,2020-05-01_15h12.31.935,Remembering_Displays,2020.1.2,MacIntel,60,9,0,1.05323,9,1,1.446875,0,6,6,6,1,Stimuli/practiceStimuliSquare/practice3_s.png,Stimuli/practiceStimuliSquare/practice3_d.png,1,1,,,,,,,,
,,,,,,,19,female,A,2020-05-01_15h12.31.935,Remembering_Displays,2020.1.2,MacIntel,60,9,1,0.74785,9,1,1.140075,0,7,7,7,1,Stimuli/practiceStimuliSquare/practice4_s.png,Stimuli/practiceStimuliSquare/practice4_s.png,0,9,,,,,,,,
,,,,,,,19,female,A,2020-05-01_15h12.31.935,Remembering_Displays,2020.1.2,MacIntel,60,,,,,,,,,,,,,,,,0,0,0,0,1,Stimuli/practiceListSquares.xlsx,Instructions/instr_practice_A.png,Practice trials completed
,,,,,,,19,female,A,2020-05-01_15h12.31.935,Remembering_Displays,2020.1.2,MacIntel,60,9,1,0.705355,9,1,0.856935,0,0,0,20,1,Stimuli/testStimuliSquare/6u_s_5_s_2D.png,Stimuli/testStimuliSquare/6u_s_5_s_2D.png,0,9,,,,,,,,
,,,,,,,19,female,A,2020-05-01_15h12.31.935,Remembering_Displays,2020.1.2,MacIntel,60,9,1,0.539785,9,1,0.803315,0,1,1,16,1,Stimuli/testStimuliSquare/6u_s_3_s_2D.png,Stimuli/testStimuliSquare/6u_s_3_s_2D.png,0,9,,,,,,,,
,,,,,,,19,female,A,2020-05-01_15h12.31.935,Remembering_Displays,2020.1.2,MacIntel,60,1,1,0.88697,9,1,0.794105,0,2,2,5,1,Stimuli/testStimuliSquare/6u_s_3_2D.png,Stimuli/testStimuliSquare/6u_d_3_2D.png,1,1,,,,,,,,
,,,,,,,19,female,A,2020-05-01_15h12.31.935,Remembering_Displays,2020.1.2,MacIntel,60,9,0,0.503935,9,0,1.478555,0,3,3,15,1,Stimuli/testStimuliSquare/6u_s_2_s_2D.png,Stimuli/testStimuliSquare/6u_d_2_s_2D.png,1,1,,,,,,,,
,,,,,,,19,female,A,2020-05-01_15h12.31.935,Remembering_Displays,2020.1.2,MacIntel,60,1,0,1.026095,9,1,1.01795,0,4,4,12,1,Stimuli/testStimuliSquare/6u_s_1_s_2D.png,Stimuli/testStimuliSquare/6u_s_1_s_2D.png,0,9,,,,,,,,
,,,,,,,19,female,A,2020-05-01_15h12.31.935,Remembering_Displays,2020.1.2,MacIntel,60,9,1,0.89261,9,1,0.77223,0,5,5,10,1,Stimuli/testStimuliSquare/6u_s_6_2D.png,Stimuli/testStimuliSquare/6u_s_6_2D.png,0,9,,,,,,,,
,,,,,,,19,female,A,2020-05-01_15h12.31.935,Remembering_Displays,2020.1.2,MacIntel,60,9,1,0.67913,9,1,0.79331,0,6,6,4,1,Stimuli/testStimuliSquare/6u_s_3_2D.png,Stimuli/testStimuliSquare/6u_s_3_2D.png,0,9,,,,,,,,
,,,,,,,19,female,A,2020-05-01_15h12.31.935,Remembering_Displays,2020.1.2,MacIntel,60,9,1,0.855465,1,1,0.9176,0,7,7,18,1,Stimuli/testStimuliSquare/6u_s_4_s_2D.png,Stimuli/testStimuliSquare/6u_s_4_s_2D.png,0,9,,,,,,,,
,,,,,,,19,female,A,2020-05-01_15h12.31.935,Remembering_Displays,2020.1.2,MacIntel,60,9,0,0.6836,1,1,1.413595,0,8,8,1,1,Stimuli/testStimuliSquare/6u_s_1_2D.png,Stimuli/testStimuliSquare/6u_d_1_2D.png,1,1,,,,,,,,
,,,,,,,19,female,A,2020-05-01_15h12.31.935,Remembering_Displays,2020.1.2,MacIntel,60,9,1,0.69055,1,1,1.348745,0,9,9,14,1,Stimuli/testStimuliSquare/6u_s_2_s_2D.png,Stimuli/testStimuliSquare/6u_s_2_s_2D.png,0,9,,,,,,,,
,,,,,,,19,female,A,2020-05-01_15h12.31.935,Remembering_Displays,2020.1.2,MacIntel,60,1,1,1.27537,1,1,1.75745,0,10,10,23,1,Stimuli/testStimuliSquare/6u_s_6_s_2D.png,Stimuli/testStimuliSquare/6u_d_6_s_2D.png,1,1,,,,,,,,
,,,,,,,19,female,A,2020-05-01_15h12.31.935,Remembering_Displays,2020.1.2,MacIntel,60,9,1,0.87269,9,1,0.819945,0,11,11,2,1,Stimuli/testStimuliSquare/6u_s_2_2D.png,Stimuli/testStimuliSquare/6u_s_2_2D.png,0,9,,,,,,,,
,,,,,,,19,female,A,2020-05-01_15h12.31.935,Remembering_Displays,2020.1.2,MacIntel,60,9,1,0.772225,9,1,1.150265,0,12,12,22,1,Stimuli/testStimuliSquare/6u_s_6_s_2D.png,Stimuli/testStimuliSquare/6u_s_6_s_2D.png,0,9,,,,,,,,
,,,,,,,19,female,A,2020-05-01_15h12.31.935,Remembering_Displays,2020.1.2,MacIntel,60,1,1,0.93472,1,1,1.335655,0,13,13,13,1,Stimuli/testStimuliSquare/6u_s_1_s_2D.png,Stimuli/testStimuliSquare/6u_d_1_s_2D.png,1,1,,,,,,,,
,,,,,,,19,female,A,2020-05-01_15h12.31.935,Remembering_Displays,2020.1.2,MacIntel,60,1,1,1.246575,9,1,0.71063,0,14,14,21,1,Stimuli/testStimuliSquare/6u_s_5_s_2D.png,Stimuli/testStimuliSquare/6u_d_5_s_2D.png,1,1,,,,,,,,
,,,,,,,19,female,A,2020-05-01_15h12.31.935,Remembering_Displays,2020.1.2,MacIntel,60,9,1,0.840515,1,1,1.21299,0,15,15,0,1,Stimuli/testStimuliSquare/6u_s_1_2D.png,Stimuli/testStimuliSquare/6u_s_1_2D.png,0,9,,,,,,,,
,,,,,,,19,female,A,2020-05-01_15h12.31.935,Remembering_Displays,2020.1.2,MacIntel,60,9,1,0.764645,9,1,0.912615,0,16,16,6,1,Stimuli/testStimuliSquare/6u_s_4_2D.png,Stimuli/testStimuliSquare/6u_s_4_2D.png,0,9,,,,,,,,
,,,,,,,19,female,A,2020-05-01_15h12.31.935,Remembering_Displays,2020.1.2,MacIntel,60,9,0,0.97333,1,1,1.89704,0,17,17,3,1,Stimuli/testStimuliSquare/6u_s_2_2D.png,Stimuli/testStimuliSquare/6u_d_2_2D.png,1,1,,,,,,,,
,,,,,,,19,female,A,2020-05-01_15h12.31.935,Remembering_Displays,2020.1.2,MacIntel,60,1,1,1.2161,9,1,1.23974,0,18,18,7,1,Stimuli/testStimuliSquare/6u_s_4_2D.png,Stimuli/testStimuliSquare/6u_d_4_2D.png,1,1,,,,,,,,
,,,,,,,19,female,A,2020-05-01_15h12.31.935,Remembering_Displays,2020.1.2,MacIntel,60,1,1,1.017005,1,1,1.29749,0,19,19,19,1,Stimuli/testStimuliSquare/6u_s_4_s_2D.png,Stimuli/testStimuliSquare/6u_d_4_s_2D.png,1,1,,,,,,,,
,,,,,,,19,female,A,2020-05-01_15h12.31.935,Remembering_Displays,2020.1.2,MacIntel,60,9,1,1.25854,9,1,0.896615,0,20,20,8,1,Stimuli/testStimuliSquare/6u_s_5_2D.png,Stimuli/testStimuliSquare/6u_s_5_2D.png,0,9,,,,,,,,
,,,,,,,19,female,A,2020-05-01_15h12.31.935,Remembering_Displays,2020.1.2,MacIntel,60,1,1,0.99059,1,1,1.08808,0,21,21,11,1,Stimuli/testStimuliSquare/6u_s_6_2D.png,Stimuli/testStimuliSquare/6u_d_6_2D.png,1,1,,,,,,,,
,,,,,,,19,female,A,2020-05-01_15h12.31.935,Remembering_Displays,2020.1.2,MacIntel,60,1,1,0.88715,9,1,0.913075,0,22,22,17,1,Stimuli/testStimuliSquare/6u_s_3_s_2D.png,Stimuli/testStimuliSquare/6u_d_3_s_2D.png,1,1,,,,,,,,
,,,,,,,19,female,A,2020-05-01_15h12.31.935,Remembering_Displays,2020.1.2,MacIntel,60,1,1,0.73584,1,1,1.539895,0,23,23,9,1,Stimuli/testStimuliSquare/6u_s_5_2D.png,Stimuli/testStimuliSquare/6u_d_5_2D.png,1,1,,,,,,,,
,,,,,,,19,female,A,2020-05-01_15h12.31.935,Remembering_Displays,2020.1.2,MacIntel,60,,,,,,,,,,,,,,,,0,1,1,1,1,Stimuli/trialListSquares1.xlsx,Instructions/instr_18.png,Progress: 24 of 192 trials completed
,,,,,,,19,female,A,2020-05-01_15h12.31.935,Remembering_Displays,2020.1.2,MacIntel,60,1,0,0.922025,1,1,1.09298,0,0,0,2,1,Stimuli/practiceStimuliCube/practice3_s.png,Stimuli/practiceStimuliCube/practice3_s.png,0,9,,,,,,,,
,,,,,,,19,female,A,2020-05-01_15h12.31.935,Remembering_Displays,2020.1.2,MacIntel,60,1,1,0.964175,1,1,0.554765,0,1,1,6,1,Stimuli/practiceStimuliCube/practice3_s.png,Stimuli/practiceStimuliCube/practice3_d.png,1,1,,,,,,,,
,,,,,,,19,female,A,2020-05-01_15h12.31.935,Remembering_Displays,2020.1.2,MacIntel,60,1,1,0.96892,1,0,0.88034,0,2,2,4,1,Stimuli/practiceStimuliCube/practice1_s.png,Stimuli/practiceStimuliCube/practice1_d.png,1,1,,,,,,,,
,,,,,,,19,female,A,2020-05-01_15h12.31.935,Remembering_Displays,2020.1.2,MacIntel,60,1,1,1.020775,1,1,0.86382,0,3,3,3,1,Stimuli/practiceStimuliCube/practice4_s.png,Stimuli/practiceStimuliCube/practice4_d.png,1,1,,,,,,,,
,,,,,,,19,female,A,2020-05-01_15h12.31.935,Remembering_Displays,2020.1.2,MacIntel,60,9,1,0.8248,1,1,0.669145,0,4,4,5,1,Stimuli/practiceStimuliCube/practice2_s.png,Stimuli/practiceStimuliCube/practice2_s.png,0,9,,,,,,,,
,,,,,,,19,female,A,2020-05-01_15h12.31.935,Remembering_Displays,2020.1.2,MacIntel,60,9,1,0.984825,9,1,0.863235,0,5,5,0,1,Stimuli/practiceStimuliCube/practice1_s.png,Stimuli/practiceStimuliCube/practice1_s.png,0,9,,,,,,,,
,,,,,,,19,female,A,2020-05-01_15h12.31.935,Remembering_Displays,2020.1.2,MacIntel,60,9,1,1.024295,9,1,0.662295,0,6,6,7,1,Stimuli/practiceStimuliCube/practice4_s.png,Stimuli/practiceStimuliCube/practice4_s.png,0,9,,,,,,,,
,,,,,,,19,female,A,2020-05-01_15h12.31.935,Remembering_Displays,2020.1.2,MacIntel,60,1,1,0.78644,1,1,1.063635,0,7,7,1,1,Stimuli/practiceStimuliCube/practice2_s.png,Stimuli/practiceStimuliCube/practice2_d.png,1,1,,,,,,,,
,,,,,,,19,female,A,2020-05-01_15h12.31.935,Remembering_Displays,2020.1.2,MacIntel,60,,,,,,,,,,,,,,,,0,2,2,2,1,Stimuli/practiceListCubes.xlsx,Instructions/instr_practice_B.png,Practice trials completed
,,,,,,,19,female,A,2020-05-01_15h12.31.935,Remembering_Displays,2020.1.2,MacIntel,60,1,0,0.988335,9,1,0.736335,0,0,0,0,1,Stimuli/testStimuliCube/6u_s_19.png,Stimuli/testStimuliCube/6u_s_19.png,0,9,,,,,,,,
,,,,,,,19,female,A,2020-05-01_15h12.31.935,Remembering_Displays,2020.1.2,MacIntel,60,1,1,0.595275,1,1,0.917055,0,1,1,7,1,Stimuli/testStimuliCube/6u_s_22.png,Stimuli/testStimuliCube/6u_d_22.png,1,1,,,,,,,,
,,,,,,,19,female,A,2020-05-01_15h12.31.935,Remembering_Displays,2020.1.2,MacIntel,60,9,1,0.844195,9,1,0.590545,0,2,2,16,1,Stimuli/testStimuliCube/6u_s_21_s.png,Stimuli/testStimuliCube/6u_s_21_s.png,0,9,,,,,,,,
,,,,,,,19,female,A,2020-05-01_15h12.31.935,Remembering_Displays,2020.1.2,MacIntel,60,9,1,0.722905,9,1,0.645345,0,3,3,22,1,Stimuli/testStimuliCube/6u_s_24_s.png,Stimuli/testStimuliCube/6u_s_24_s.png,0,9,,,,,,,,
,,,,,,,19,female,A,2020-05-01_15h12.31.935,Remembering_Displays,2020.1.2,MacIntel,60,,0,,1,1,1.59653,0,4,4,20,1,Stimuli/testStimuliCube/6u_s_23_s.png,Stimuli/testStimuliCube/6u_s_23_s.png,0,9,,,,,,,,
,,,,,,,19,female,A,2020-05-01_15h12.31.935,Remembering_Displays,2020.1.2,MacIntel,60,9,1,0.83778,1,1,0.87013,0,5,5,8,1,Stimuli/testStimuliCube/6u_s_23.png,Stimuli/testStimuliCube/6u_s_23.png,0,9,,,,,,,,
,,,,,,,19,female,A,2020-05-01_15h12.31.935,Remembering_Displays,2020.1.2,MacIntel,60,1,1,0.734185,1,1,0.74668,0,6,6,5,1,Stimuli/testStimuliCube/6u_s_21.png,Stimuli/testStimuliCube/6u_d_21.png,1,1,,,,,,,,
,,,,,,,19,female,A,2020-05-01_15h12.31.935,Remembering_Displays,2020.1.2,MacIntel,60,1,1,0.96737,1,1,1.253995,0,7,7,15,1,Stimuli/testStimuliCube/6u_s_20_s.png,Stimuli/testStimuliCube/6u_d_20_s.png,1,1,,,,,,,,
,,,,,,,19,female,A,2020-05-01_15h12.31.935,Remembering_Displays,2020.1.2,MacIntel,60,1,0,1.092355,9,1,1.14272,0,8,8,6,1,Stimuli/testStimuliCube/6u_s_22.png,Stimuli/testStimuliCube/6u_s_22.png,0,9,,,,,,,,
,,,,,,,19,female,A,2020-05-01_15h12.31.935,Remembering_Displays,2020.1.2,MacIntel,60,1,1,0.689945,9,1,0.60249,0,9,9,19,1,Stimuli/testStimuliCube/6u_s_22_s.png,Stimuli/testStimuliCube/6u_d_22_s.png,1,1,,,,,,,,
,,,,,,,19,female,A,2020-05-01_15h12.31.935,Remembering_Displays,2020.1.2,MacIntel,60,9,0,0.60092,1,1,1.421345,0,10,10,21,1,Stimuli/testStimuliCube/6u_s_23_s.png,Stimuli/testStimuliCube/6u_d_23_s.png,1,1,,,,,,,,
,,,,,,,19,female,A,2020-05-01_15h12.31.935,Remembering_Displays,2020.1.2,MacIntel,60,1,1,0.743715,1,1,1.010045,0,11,11,1,1,Stimuli/testStimuliCube/6u_s_19.png,Stimuli/testStimuliCube/6u_d_19.png,1,1,,,,,,,,
,,,,,,,19,female,A,2020-05-01_15h12.31.935,Remembering_Displays,2020.1.2,MacIntel,60,1,0,0.855365,1,1,1.34642,0,12,12,18,1,Stimuli/testStimuliCube/6u_s_22_s.png,Stimuli/testStimuliCube/6u_s_22_s.png,0,9,,,,,,,,
,,,,,,,19,female,A,2020-05-01_15h12.31.935,Remembering_Displays,2020.1.2,MacIntel,60,1,1,0.943785,9,1,0.78844,0,13,13,9,1,Stimuli/testStimuliCube/6u_s_23.png,Stimuli/testStimuliCube/6u_d_23.png,1,1,,,,,,,,
,,,,,,,19,female,A,2020-05-01_15h12.31.935,Remembering_Displays,2020.1.2,MacIntel,60,1,1,0.78271,1,1,1.005935,0,14,14,23,1,Stimuli/testStimuliCube/6u_s_24_s.png,Stimuli/testStimuliCube/6u_d_24_s.png,1,1,,,,,,,,
,,,,,,,19,female,A,2020-05-01_15h12.31.935,Remembering_Displays,2020.1.2,MacIntel,60,1,1,0.74961,9,1,1.187865,0,15,15,13,1,Stimuli/testStimuliCube/6u_s_19_s.png,Stimuli/testStimuliCube/6u_d_19_s.png,1,1,,,,,,,,
,,,,,,,19,female,A,2020-05-01_15h12.31.935,Remembering_Displays,2020.1.2,MacIntel,60,1,0,0.731265,1,1,0.81933,0,16,16,12,1,Stimuli/testStimuliCube/6u_s_19_s.png,Stimuli/testStimuliCube/6u_s_19_s.png,0,9,,,,,,,,
,,,,,,,19,female,A,2020-05-01_15h12.31.935,Remembering_Displays,2020.1.2,MacIntel,60,9,1,1.075785,9,1,0.585545,0,17,17,2,1,Stimuli/testStimuliCube/6u_s_20.png,Stimuli/testStimuliCube/6u_s_20.png,0,9,,,,,,,,
,,,,,,,19,female,A,2020-05-01_15h12.31.935,Remembering_Displays,2020.1.2,MacIntel,60,1,1,0.695885,9,1,0.616235,0,18,18,3,1,Stimuli/testStimuliCube/6u_s_20.png,Stimuli/testStimuliCube/6u_d_20.png,1,1,,,,,,,,
,,,,,,,19,female,A,2020-05-01_15h12.31.935,Remembering_Displays,2020.1.2,MacIntel,60,1,1,0.832335,9,1,0.70196,0,19,19,17,1,Stimuli/testStimuliCube/6u_s_21_s.png,Stimuli/testStimuliCube/6u_d_21_s.png,1,1,,,,,,,,
,,,,,,,19,female,A,2020-05-01_15h12.31.935,Remembering_Displays,2020.1.2,MacIntel,60,9,1,0.722645,1,1,0.818645,0,20,20,14,1,Stimuli/testStimuliCube/6u_s_20_s.png,Stimuli/testStimuliCube/6u_s_20_s.png,0,9,,,,,,,,
,,,,,,,19,female,A,2020-05-01_15h12.31.935,Remembering_Displays,2020.1.2,MacIntel,60,9,1,0.739565,1,1,3.06121,0,21,21,10,1,Stimuli/testStimuliCube/6u_s_24.png,Stimuli/testStimuliCube/6u_s_24.png,0,9,,,,,,,,
,,,,,,,19,female,A,2020-05-01_15h12.31.935,Remembering_Displays,2020.1.2,MacIntel,60,1,1,1.180415,1,1,0.751815,0,22,22,11,1,Stimuli/testStimuliCube/6u_s_24.png,Stimuli/testStimuliCube/6u_d_24.png,1,1,,,,,,,,
,,,,,,,19,female,A,2020-05-01_15h12.31.935,Remembering_Displays,2020.1.2,MacIntel,60,9,1,1.0388,9,1,0.549395,0,23,23,4,1,Stimuli/testStimuliCube/6u_s_21.png,Stimuli/testStimuliCube/6u_s_21.png,0,9,,,,,,,,
,,,,,,,19,female,A,2020-05-01_15h12.31.935,Remembering_Displays,2020.1.2,MacIntel,60,,,,,,,,,,,,,,,,0,3,3,3,1,Stimuli/trialListCubes4.xlsx,Instructions/instr_19.png,Progress: 48 of 192 trials completed
,,,,,,,19,female,A,2020-05-01_15h12.31.935,Remembering_Displays,2020.1.2,MacIntel,60,1,1,0.885385,9,1,0.877935,0,0,0,5,1,Stimuli/testStimuliSquare/6u_s_9_2D.png,Stimuli/testStimuliSquare/6u_d_9_2D.png,1,1,,,,,,,,
,,,,,,,19,female,A,2020-05-01_15h12.31.935,Remembering_Displays,2020.1.2,MacIntel,60,9,1,0.806205,1,1,0.74284,0,1,1,6,1,Stimuli/testStimuliSquare/6u_s_10_2D.png,Stimuli/testStimuliSquare/6u_s_10_2D.png,0,9,,,,,,,,
,,,,,,,19,female,A,2020-05-01_15h12.31.935,Remembering_Displays,2020.1.2,MacIntel,60,9,1,0.7793,9,1,0.80054,0,2,2,20,1,Stimuli/testStimuliSquare/6u_s_11_s_2D.png,Stimuli/testStimuliSquare/6u_s_11_s_2D.png,0,9,,,,,,,,
,,,,,,,19,female,A,2020-05-01_15h12.31.935,Remembering_Displays,2020.1.2,MacIntel,60,9,1,0.696075,1,1,0.73975,0,3,3,10,1,Stimuli/testStimuliSquare/6u_s_12_2D.png,Stimuli/testStimuliSquare/6u_s_12_2D.png,0,9,,,,,,,,
,,,,,,,19,female,A,2020-05-01_15h12.31.935,Remembering_Displays,2020.1.2,MacIntel,60,9,0,0.632725,9,1,0.653825,0,4,4,3,1,Stimuli/testStimuliSquare/6u_s_8_2D.png,Stimuli/testStimuliSquare/6u_d_8_2D.png,1,1,,,,,,,,
,,,,,,,19,female,A,2020-05-01_15h12.31.935,Remembering_Displays,2020.1.2,MacIntel,60,1,1,0.77788,1,1,0.8246,0,5,5,21,1,Stimuli/testStimuliSquare/6u_s_11_s_2D.png,Stimuli/testStimuliSquare/6u_d_11_s_2D.png,1,1,,,,,,,,
,,,,,,,19,female,A,2020-05-01_15h12.31.935,Remembering_Displays,2020.1.2,MacIntel,60,9,1,0.739905,1,1,0.727595,0,6,6,4,1,Stimuli/testStimuliSquare/6u_s_9_2D.png,Stimuli/testStimuliSquare/6u_s_9_2D.png,0,9,,,,,,,,
,,,,,,,19,female,A,2020-05-01_15h12.31.935,Remembering_Displays,2020.1.2,MacIntel,60,9,0,0.632885,1,1,0.542685,0,7,7,1,1,Stimuli/testStimuliSquare/6u_s_7_2D.png,Stimuli/testStimuliSquare/6u_d_7_2D.png,1,1,,,,,,,,
,,,,,,,19,female,A,2020-05-01_15h12.31.935,Remembering_Displays,2020.1.2,MacIntel,60,9,1,0.693,9,1,0.589825,0,8,8,18,1,Stimuli/testStimuliSquare/6u_s_10_s_2D.png,Stimuli/testStimuliSquare/6u_s_10_s_2D.png,0,9,,,,,,,,
,,,,,,,19,female,A,2020-05-01_15h12.31.935,Remembering_Displays,2020.1.2,MacIntel,60,1,1,0.776805,9,1,0.746085,0,9,9,19,1,Stimuli/testStimuliSquare/6u_s_10_s_2D.png,Stimuli/testStimuliSquare/6u_d_10_s_2D.png,1,1,,,,,,,,
,,,,,,,19,female,A,2020-05-01_15h12.31.935,Remembering_Displays,2020.1.2,MacIntel,60,9,1,0.6952,9,1,0.734625,0,10,10,0,1,Stimuli/testStimuliSquare/6u_s_7_2D.png,Stimuli/testStimuliSquare/6u_s_7_2D.png,0,9,,,,,,,,
,,,,,,,19,female,A,2020-05-01_15h12.31.935,Remembering_Displays,2020.1.2,MacIntel,60,9,1,0.77162,9,1,0.57461,0,11,11,12,1,Stimuli/testStimuliSquare/6u_s_7_s_2D.png,Stimuli/testStimuliSquare/6u_s_7_s_2D.png,0,9,,,,,,,,
,,,,,,,19,female,A,2020-05-01_15h12.31.935,Remembering_Displays,2020.1.2,MacIntel,60,9,1,0.62129,9,1,0.9869,0,12,12,8,1,Stimuli/testStimuliSquare/6u_s_11_2D.png,Stimuli/testStimuliSquare/6u_s_11_2D.png,0,9,,,,,,,,
,,,,,,,19,female,A,2020-05-01_15h12.31.935,Remembering_Displays,2020.1.2,MacIntel,60,9,0,0.633375,1,1,0.87954,0,13,13,11,1,Stimuli/testStimuliSquare/6u_s_12_2D.png,Stimuli/testStimuliSquare/6u_d_12_2D.png,1,1,,,,,,,,
,,,,,,,19,female,A,2020-05-01_15h12.31.935,Remembering_Displays,2020.1.2,MacIntel,60,9,1,0.655455,1,1,0.468795,0,14,14,2,1,Stimuli/testStimuliSquare/6u_s_8_2D.png,Stimuli/testStimuliSquare/6u_s_8_2D.png,0,9,,,,,,,,
,,,,,,,19,female,A,2020-05-01_15h12.31.935,Remembering_Displays,2020.1.2,MacIntel,60,1,1,0.829845,9,0,0.716495,0,15,15,13,1,Stimuli/testStimuliSquare/6u_s_7_s_2D.png,Stimuli/testStimuliSquare/6u_d_7_s_2D.png,1,1,,,,,,,,
,,,,,,,19,female,A,2020-05-01_15h12.31.935,Remembering_Displays,2020.1.2,MacIntel,60,9,0,0.696305,9,1,0.807365,0,16,16,9,1,Stimuli/testStimuliSquare/6u_s_11_2D.png,Stimuli/testStimuliSquare/6u_d_11_2D.png,1,1,,,,,,,,
,,,,,,,19,female,A,2020-05-01_15h12.31.935,Remembering_Displays,2020.1.2,MacIntel,60,9,1,1.00393,1,1,0.60701,0,17,17,16,1,Stimuli/testStimuliSquare/6u_s_9_s_2D.png,Stimuli/testStimuliSquare/6u_s_9_s_2D.png,0,9,,,,,,,,
,,,,,,,19,female,A,2020-05-01_15h12.31.935,Remembering_Displays,2020.1.2,MacIntel,60,1,1,0.699,1,1,0.541485,0,18,18,7,1,Stimuli/testStimuliSquare/6u_s_10_2D.png,Stimuli/testStimuliSquare/6u_d_10_2D.png,1,1,,,,,,,,
,,,,,,,19,female,A,2020-05-01_15h12.31.935,Remembering_Displays,2020.1.2,MacIntel,60,1,0,0.974075,1,0,1.270925,0,19,19,22,1,Stimuli/testStimuliSquare/6u_s_12_s_2D.png,Stimuli/testStimuliSquare/6u_s_12_s_2D.png,0,9,,,,,,,,
,,,,,,,19,female,A,2020-05-01_15h12.31.935,Remembering_Displays,2020.1.2,MacIntel,60,1,1,0.90168,1,1,0.65257,0,20,20,17,1,Stimuli/testStimuliSquare/6u_s_9_s_2D.png,Stimuli/testStimuliSquare/6u_d_9_s_2D.png,1,1,,,,,,,,
,,,,,,,19,female,A,2020-05-01_15h12.31.935,Remembering_Displays,2020.1.2,MacIntel,60,1,1,0.969545,1,1,0.53586,0,21,21,15,1,Stimuli/testStimuliSquare/6u_s_8_s_2D.png,Stimuli/testStimuliSquare/6u_d_8_s_2D.png,1,1,,,,,,,,
,,,,,,,19,female,A,2020-05-01_15h12.31.935,Remembering_Displays,2020.1.2,MacIntel,60,1,1,0.78419,9,1,0.72266,0,22,22,23,1,Stimuli/testStimuliSquare/6u_s_12_s_2D.png,Stimuli/testStimuliSquare/6u_d_12_s_2D.png,1,1,,,,,,,,
,,,,,,,19,female,A,2020-05-01_15h12.31.935,Remembering_Displays,2020.1.2,MacIntel,60,1,0,1.009305,9,1,0.70266,0,23,23,14,1,Stimuli/testStimuliSquare/6u_s_8_s_2D.png,Stimuli/testStimuliSquare/6u_s_8_s_2D.png,0,9,,,,,,,,
,,,,,,,19,female,A,2020-05-01_15h12.31.935,Remembering_Displays,2020.1.2,MacIntel,60,,,,,,,,,,,,,,,,0,4,4,4,1,Stimuli/trialListSquares2.xlsx,Instructions/instr_18.png,Progress: 72 of 192 trials completed
,,,,,,,19,female,A,2020-05-01_15h12.31.935,Remembering_Displays,2020.1.2,MacIntel,60,9,1,0.756735,1,1,0.60591,0,0,0,18,1,Stimuli/testStimuliCube/6u_s_16_s.png,Stimuli/testStimuliCube/6u_s_16_s.png,0,9,,,,,,,,
,,,,,,,19,female,A,2020-05-01_15h12.31.935,Remembering_Displays,2020.1.2,MacIntel,60,9,1,0.854725,9,1,0.4882,0,1,1,8,1,Stimuli/testStimuliCube/6u_s_17.png,Stimuli/testStimuliCube/6u_s_17.png,0,9,,,,,,,,
,,,,,,,19,female,A,2020-05-01_15h12.31.935,Remembering_Displays,2020.1.2,MacIntel,60,9,0,0.696685,9,1,1.321225,0,2,2,13,1,Stimuli/testStimuliCube/6u_s_13_s.png,Stimuli/testStimuliCube/6u_d_13_s.png,1,1,,,,,,,,
,,,,,,,19,female,A,2020-05-01_15h12.31.935,Remembering_Displays,2020.1.2,MacIntel,60,1,1,0.732965,1,1,2.257445,0,3,3,19,1,Stimuli/testStimuliCube/6u_s_16_s.png,Stimuli/testStimuliCube/6u_d_16_s.png,1,1,,,,,,,,
,,,,,,,19,female,A,2020-05-01_15h12.31.935,Remembering_Displays,2020.1.2,MacIntel,60,1,0,0.75863,9,1,1.17736,0,4,4,6,1,Stimuli/testStimuliCube/6u_s_16.png,Stimuli/testStimuliCube/6u_s_16.png,0,9,,,,,,,,
,,,,,,,19,female,A,2020-05-01_15h12.31.935,Remembering_Displays,2020.1.2,MacIntel,60,1,1,0.75768,9,1,0.992605,0,5,5,23,1,Stimuli/testStimuliCube/6u_s_18_s.png,Stimuli/testStimuliCube/6u_d_18_s.png,1,1,,,,,,,,
,,,,,,,19,female,A,2020-05-01_15h12.31.935,Remembering_Displays,2020.1.2,MacIntel,60,1,1,0.676645,9,1,0.721265,0,6,6,21,1,Stimuli/testStimuliCube/6u_s_17_s.png,Stimuli/testStimuliCube/6u_d_17_s.png,1,1,,,,,,,,
,,,,,,,19,female,A,2020-05-01_15h12.31.935,Remembering_Displays,2020.1.2,MacIntel,60,1,1,0.94037,9,1,0.861895,0,7,7,15,1,Stimuli/testStimuliCube/6u_s_14_s.png,Stimuli/testStimuliCube/6u_d_14_s.png,1,1,,,,,,,,
,,,,,,,19,female,A,2020-05-01_15h12.31.935,Remembering_Displays,2020.1.2,MacIntel,60,1,0,0.69413,1,1,1.02953,0,8,8,2,1,Stimuli/testStimuliCube/6u_s_14.png,Stimuli/testStimuliCube/6u_s_14.png,0,9,,,,,,,,
,,,,,,,19,female,A,2020-05-01_15h12.31.935,Remembering_Displays,2020.1.2,MacIntel,60,9,1,0.653255,1,1,0.819665,0,9,9,14,1,Stimuli/testStimuliCube/6u_s_14_s.png,Stimuli/testStimuliCube/6u_s_14_s.png,0,9,,,,,,,,
,,,,,,,19,female,A,2020-05-01_15h12.31.935,Remembering_Displays,2020.1.2,MacIntel,60,9,1,0.804335,1,1,0.652415,0,10,10,22,1,Stimuli/testStimuliCube/6u_s_18_s.png,Stimuli/testStimuliCube/6u_s_18_s.png,0,9,,,,,,,,
,,,,,,,19,female,A,2020-05-01_15h12.31.935,Remembering_Displays,2020.1.2,MacIntel,60,1,1,1.028415,1,1,0.961785,0,11,11,11,1,Stimuli/testStimuliCube/6u_s_18.png,Stimuli/testStimuliCube/6u_d_18.png,1,1,,,,,,,,
,,,,,,,19,female,A,2020-05-01_15h12.31.935,Remembering_Displays,2020.1.2,MacIntel,60,1,1,1.27658,9,1,0.96953,0,12,12,3,1,Stimuli/testStimuliCube/6u_s_14.png,Stimuli/testStimuliCube/6u_d_14.png,1,1,,,,,,,,
,,,,,,,19,female,A,2020-05-01_15h12.31.935,Remembering_Displays,2020.1.2,MacIntel,60,1,1,0.810665,1,1,2.521855,0,13,13,5,1,Stimuli/testStimuliCube/6u_s_15.png,Stimuli/testStimuliCube/6u_d_15.png,1,1,,,,,,,,
,,,,,,,19,female,A,2020-05-01_15h12.31.935,Remembering_Displays,2020.1.2,MacIntel,60,9,1,0.84303,9,1,1.1874,0,14,14,4,1,Stimuli/testStimuliCube/6u_s_15.png,Stimuli/testStimuliCube/6u_s_15.png,0,9,,,,,,,,
,,,,,,,19,female,A,2020-05-01_15h12.31.935,Remembering_Displays,2020.1.2,MacIntel,60,9,1,1.11563,9,1,0.802815,0,15,15,12,1,Stimuli/testStimuliCube/6u_s_13_s.png,Stimuli/testStimuliCube/6u_s_13_s.png,0,9,,,,,,,,
,,,,,,,19,female,A,2020-05-01_15h12.31.935,Remembering_Displays,2020.1.2,MacIntel,60,9,1,0.891765,9,0,1.0035,0,16,16,0,1,Stimuli/testStimuliCube/6u_s_13.png,Stimuli/testStimuliCube/6u_s_13.png,0,9,,,,,,,,
,,,,,,,19,female,A,2020-05-01_15h12.31.935,Remembering_Displays,2020.1.2,MacIntel,60,9,1,0.735915,1,0,0.694755,0,17,17,20,1,Stimuli/testStimuliCube/6u_s_17_s.png,Stimuli/testStimuliCube/6u_s_17_s.png,0,9,,,,,,,,
,,,,,,,19,female,A,2020-05-01_15h12.31.935,Remembering_Displays,2020.1.2,MacIntel,60,1,1,1.108515,9,1,0.609965,0,18,18,9,1,Stimuli/testStimuliCube/6u_s_17.png,Stimuli/testStimuliCube/6u_d_17.png,1,1,,,,,,,,
,,,,,,,19,female,A,2020-05-01_15h12.31.935,Remembering_Displays,2020.1.2,MacIntel,60,9,1,0.77048,1,1,0.87809,0,19,19,10,1,Stimuli/testStimuliCube/6u_s_18.png,Stimuli/testStimuliCube/6u_s_18.png,0,9,,,,,,,,
,,,,,,,19,female,A,2020-05-01_15h12.31.935,Remembering_Displays,2020.1.2,MacIntel,60,9,1,0.704985,9,1,0.99693,0,20,20,16,1,Stimuli/testStimuliCube/6u_s_15_s.png,Stimuli/testStimuliCube/6u_s_15_s.png,0,9,,,,,,,,
,,,,,,,19,female,A,2020-05-01_15h12.31.935,Remembering_Displays,2020.1.2,MacIntel,60,9,0,0.9292,1,1,0.595735,0,21,21,1,1,Stimuli/testStimuliCube/6u_s_13.png,Stimuli/testStimuliCube/6u_d_13.png,1,1,,,,,,,,
,,,,,,,19,female,A,2020-05-01_15h12.31.935,Remembering_Displays,2020.1.2,MacIntel,60,1,1,1.00201,1,1,0.641965,0,22,22,7,1,Stimuli/testStimuliCube/6u_s_16.png,Stimuli/testStimuliCube/6u_d_16.png,1,1,,,,,,,,
,,,,,,,19,female,A,2020-05-01_15h12.31.935,Remembering_Displays,2020.1.2,MacIntel,60,1,1,0.787275,9,1,1.47149,0,23,23,17,1,Stimuli/testStimuliCube/6u_s_15_s.png,Stimuli/testStimuliCube/6u_d_15_s.png,1,1,,,,,,,,
,,,,,,,19,female,A,2020-05-01_15h12.31.935,Remembering_Displays,2020.1.2,MacIntel,60,,,,,,,,,,,,,,,,0,5,5,5,1,Stimuli/trialListCubes3.xlsx,Instructions/instr_19.png,Progress: 96 of 192 trials completed
,,,,,,,19,female,A,2020-05-01_15h12.31.935,Remembering_Displays,2020.1.2,MacIntel,60,1,1,0.849835,9,1,1.42761,0,0,0,1,1,Stimuli/testStimuliSquare/6u_s_13_2D.png,Stimuli/testStimuliSquare/6u_d_13_2D.png,1,1,,,,,,,,
,,,,,,,19,female,A,2020-05-01_15h12.31.935,Remembering_Displays,2020.1.2,MacIntel,60,1,1,0.79334,1,1,1.68888,0,1,1,23,1,Stimuli/testStimuliSquare/6u_s_18_s_2D.png,Stimuli/testStimuliSquare/6u_d_18_s_2D.png,1,1,,,,,,,,
,,,,,,,19,female,A,2020-05-01_15h12.31.935,Remembering_Displays,2020.1.2,MacIntel,60,9,1,1.155515,1,1,0.92259,0,2,2,6,1,Stimuli/testStimuliSquare/6u_s_16_2D.png,Stimuli/testStimuliSquare/6u_s_16_2D.png,0,9,,,,,,,,
,,,,,,,19,female,A,2020-05-01_15h12.31.935,Remembering_Displays,2020.1.2,MacIntel,60,9,1,0.788615,9,1,0.906855,0,3,3,4,1,Stimuli/testStimuliSquare/6u_s_15_2D.png,Stimuli/testStimuliSquare/6u_s_15_2D.png,0,9,,,,,,,,
,,,,,,,19,female,A,2020-05-01_15h12.31.935,Remembering_Displays,2020.1.2,MacIntel,60,9,1,1.121115,1,1,0.670745,0,4,4,20,1,Stimuli/testStimuliSquare/6u_s_17_s_2D.png,Stimuli/testStimuliSquare/6u_s_17_s_2D.png,0,9,,,,,,,,
,,,,,,,19,female,A,2020-05-01_15h12.31.935,Remembering_Displays,2020.1.2,MacIntel,60,9,1,0.805835,9,1,0.679375,0,5,5,18,1,Stimuli/testStimuliSquare/6u_s_16_s_2D.png,Stimuli/testStimuliSquare/6u_s_16_s_2D.png,0,9,,,,,,,,
,,,,,,,19,female,A,2020-05-01_15h12.31.935,Remembering_Displays,2020.1.2,MacIntel,60,9,0,0.75042,1,1,0.70347,0,6,6,11,1,Stimuli/testStimuliSquare/6u_s_18_2D.png,Stimuli/testStimuliSquare/6u_d_18_2D.png,1,1,,,,,,,,
,,,,,,,19,female,A,2020-05-01_15h12.31.935,Remembering_Displays,2020.1.2,MacIntel,60,1,1,0.80049,9,1,0.502675,0,7,7,21,1,Stimuli/testStimuliSquare/6u_s_17_s_2D.png,Stimuli/testStimuliSquare/6u_d_17_s_2D.png,1,1,,,,,,,,
,,,,,,,19,female,A,2020-05-01_15h12.31.935,Remembering_Displays,2020.1.2,MacIntel,60,1,1,0.848495,1,1,0.544305,0,8,8,15,1,Stimuli/testStimuliSquare/6u_s_14_s_2D.png,Stimuli/testStimuliSquare/6u_d_14_s_2D.png,1,1,,,,,,,,
,,,,,,,19,female,A,2020-05-01_15h12.31.935,Remembering_Displays,2020.1.2,MacIntel,60,1,1,0.7569,1,1,0.936655,0,9,9,7,1,Stimuli/testStimuliSquare/6u_s_16_2D.png,Stimuli/testStimuliSquare/6u_d_16_2D.png,1,1,,,,,,,,
,,,,,,,19,female,A,2020-05-01_15h12.31.935,Remembering_Displays,2020.1.2,MacIntel,60,1,1,0.85028,9,1,0.77469,0,10,10,3,1,Stimuli/testStimuliSquare/6u_s_14_2D.png,Stimuli/testStimuliSquare/6u_d_14_2D.png,1,1,,,,,,,,
,,,,,,,19,female,A,2020-05-01_15h12.31.935,Remembering_Displays,2020.1.2,MacIntel,60,1,0,0.890155,1,1,0.72544,0,11,11,12,1,Stimuli/testStimuliSquare/6u_s_13_s_2D.png,Stimuli/testStimuliSquare/6u_s_13_s_2D.png,0,9,,,,,,,,
,,,,,,,19,female,A,2020-05-01_15h12.31.935,Remembering_Displays,2020.1.2,MacIntel,60,9,1,0.79171,9,1,0.803675,0,12,12,8,1,Stimuli/testStimuliSquare/6u_s_17_2D.png,Stimuli/testStimuliSquare/6u_s_17_2D.png,0,9,,,,,,,,
,,,,,,,19,female,A,2020-05-01_15h12.31.935,Remembering_Displays,2020.1.2,MacIntel,60,1,0,0.82277,1,1,0.81711,0,13,13,16,1,Stimuli/testStimuliSquare/6u_s_15_s_2D.png,Stimuli/testStimuliSquare/6u_s_15_s_2D.png,0,9,,,,,,,,
,,,,,,,19,female,A,2020-05-01_15h12.31.935,Remembering_Displays,2020.1.2,MacIntel,60,1,1,0.868975,9,1,1.84077,0,14,14,17,1,Stimuli/testStimuliSquare/6u_s_15_s_2D.png,Stimuli/testStimuliSquare/6u_d_15_s_2D.png,1,1,,,,,,,,
,,,,,,,19,female,A,2020-05-01_15h12.31.935,Remembering_Displays,2020.1.2,MacIntel,60,9,1,0.590935,1,1,1.00484,0,15,15,14,1,Stimuli/testStimuliSquare/6u_s_14_s_2D.png,Stimuli/testStimuliSquare/6u_s_14_s_2D.png,0,9,,,,,,,,
,,,,,,,19,female,A,2020-05-01_15h12.31.935,Remembering_Displays,2020.1.2,MacIntel,60,1,1,0.996965,9,1,0.75847,0,16,16,19,1,Stimuli/testStimuliSquare/6u_s_16_s_2D.png,Stimuli/testStimuliSquare/6u_d_16_s_2D.png,1,1,,,,,,,,
,,,,,,,19,female,A,2020-05-01_15h12.31.935,Remembering_Displays,2020.1.2,MacIntel,60,9,1,0.7274,9,1,0.54311,0,17,17,22,1,Stimuli/testStimuliSquare/6u_s_18_s_2D.png,Stimuli/testStimuliSquare/6u_s_18_s_2D.png,0,9,,,,,,,,
,,,,,,,19,female,A,2020-05-01_15h12.31.935,Remembering_Displays,2020.1.2,MacIntel,60,9,1,0.99188,1,1,1.274065,0,18,18,2,1,Stimuli/testStimuliSquare/6u_s_14_2D.png,Stimuli/testStimuliSquare/6u_s_14_2D.png,0,9,,,,,,,,
,,,,,,,19,female,A,2020-05-01_15h12.31.935,Remembering_Displays,2020.1.2,MacIntel,60,1,1,0.757575,9,1,0.73813,0,19,19,5,1,Stimuli/testStimuliSquare/6u_s_15_2D.png,Stimuli/testStimuliSquare/6u_d_15_2D.png,1,1,,,,,,,,
,,,,,,,19,female,A,2020-05-01_15h12.31.935,Remembering_Displays,2020.1.2,MacIntel,60,1,0,0.67882,1,1,0.872355,0,20,20,0,1,Stimuli/testStimuliSquare/6u_s_13_2D.png,Stimuli/testStimuliSquare/6u_s_13_2D.png,0,9,,,,,,,,
,,,,,,,19,female,A,2020-05-01_15h12.31.935,Remembering_Displays,2020.1.2,MacIntel,60,9,0,1.31345,9,1,1.341145,0,21,21,13,1,Stimuli/testStimuliSquare/6u_s_13_s_2D.png,Stimuli/testStimuliSquare/6u_d_13_s_2D.png,1,1,,,,,,,,
,,,,,,,19,female,A,2020-05-01_15h12.31.935,Remembering_Displays,2020.1.2,MacIntel,60,9,1,1.048675,1,1,0.75447,0,22,22,10,1,Stimuli/testStimuliSquare/6u_s_18_2D.png,Stimuli/testStimuliSquare/6u_s_18_2D.png,0,9,,,,,,,,
,,,,,,,19,female,A,2020-05-01_15h12.31.935,Remembering_Displays,2020.1.2,MacIntel,60,1,1,0.63342,1,1,0.97181,0,23,23,9,1,Stimuli/testStimuliSquare/6u_s_17_2D.png,Stimuli/testStimuliSquare/6u_d_17_2D.png,1,1,,,,,,,,
,,,,,,,19,female,A,2020-05-01_15h12.31.935,Remembering_Displays,2020.1.2,MacIntel,60,,,,,,,,,,,,,,,,0,6,6,6,1,Stimuli/trialListSquares3.xlsx,Instructions/instr_18.png,Progress: 120 of 192 trials completed
,,,,,,,19,female,A,2020-05-01_15h12.31.935,Remembering_Displays,2020.1.2,MacIntel,60,9,1,0.796625,9,1,0.451985,0,0,0,10,1,Stimuli/testStimuliCube/6u_s_12.png,Stimuli/testStimuliCube/6u_s_12.png,0,9,,,,,,,,
,,,,,,,19,female,A,2020-05-01_15h12.31.935,Remembering_Displays,2020.1.2,MacIntel,60,1,1,0.693035,9,1,1.547195,0,1,1,7,1,Stimuli/testStimuliCube/6u_s_10.png,Stimuli/testStimuliCube/6u_d_10.png,1,1,,,,,,,,
,,,,,,,19,female,A,2020-05-01_15h12.31.935,Remembering_Displays,2020.1.2,MacIntel,60,1,1,1.139345,9,1,0.803035,0,2,2,23,1,Stimuli/testStimuliCube/6u_s_12_s.png,Stimuli/testStimuliCube/6u_d_12_s.png,1,1,,,,,,,,
,,,,,,,19,female,A,2020-05-01_15h12.31.935,Remembering_Displays,2020.1.2,MacIntel,60,9,1,0.73604,9,1,0.77946,0,3,3,20,1,Stimuli/testStimuliCube/6u_s_11_s.png,Stimuli/testStimuliCube/6u_s_11_s.png,0,9,,,,,,,,
,,,,,,,19,female,A,2020-05-01_15h12.31.935,Remembering_Displays,2020.1.2,MacIntel,60,1,0,1.22317,1,1,0.70545,0,4,4,2,1,Stimuli/testStimuliCube/6u_s_8.png,Stimuli/testStimuliCube/6u_s_8.png,0,9,,,,,,,,
,,,,,,,19,female,A,2020-05-01_15h12.31.935,Remembering_Displays,2020.1.2,MacIntel,60,,0,,1,1,1.01995,0,5,5,11,1,Stimuli/testStimuliCube/6u_s_12.png,Stimuli/testStimuliCube/6u_d_12.png,1,1,,,,,,,,
,,,,,,,19,female,A,2020-05-01_15h12.31.935,Remembering_Displays,2020.1.2,MacIntel,60,9,1,0.7095,1,1,0.791835,0,6,6,4,1,Stimuli/testStimuliCube/6u_s_9.png,Stimuli/testStimuliCube/6u_s_9.png,0,9,,,,,,,,
,,,,,,,19,female,A,2020-05-01_15h12.31.935,Remembering_Displays,2020.1.2,MacIntel,60,1,1,0.93267,9,1,0.62681,0,7,7,9,1,Stimuli/testStimuliCube/6u_s_11.png,Stimuli/testStimuliCube/6u_d_11.png,1,1,,,,,,,,
,,,,,,,19,female,A,2020-05-01_15h12.31.935,Remembering_Displays,2020.1.2,MacIntel,60,9,1,0.603995,9,1,0.47075,0,8,8,18,1,Stimuli/testStimuliCube/6u_s_10_s.png,Stimuli/testStimuliCube/6u_s_10_s.png,0,9,,,,,,,,
,,,,,,,19,female,A,2020-05-01_15h12.31.935,Remembering_Displays,2020.1.2,MacIntel,60,1,0,0.91084,9,1,0.385565,0,9,9,16,1,Stimuli/testStimuliCube/6u_s_9_s.png,Stimuli/testStimuliCube/6u_s_9_s.png,0,9,,,,,,,,
,,,,,,,19,female,A,2020-05-01_15h12.31.935,Remembering_Displays,2020.1.2,MacIntel,60,9,0,0.978215,9,1,0.62238,0,10,10,1,1,Stimuli/testStimuliCube/6u_s_7.png,Stimuli/testStimuliCube/6u_d_7.png,1,1,,,,,,,,
,,,,,,,19,female,A,2020-05-01_15h12.31.935,Remembering_Displays,2020.1.2,MacIntel,60,9,1,0.69617,1,1,0.52681,0,11,11,12,1,Stimuli/testStimuliCube/6u_s_7_s.png,Stimuli/testStimuliCube/6u_s_7_s.png,0,9,,,,,,,,
,,,,,,,19,female,A,2020-05-01_15h12.31.935,Remembering_Displays,2020.1.2,MacIntel,60,9,0,0.81929,1,1,0.46769,0,12,12,17,1,Stimuli/testStimuliCube/6u_s_9_s.png,Stimuli/testStimuliCube/6u_d_9_s.png,1,1,,,,,,,,
,,,,,,,19,female,A,2020-05-01_15h12.31.935,Remembering_Displays,2020.1.2,MacIntel,60,9,0,1.07918,1,1,2.793865,0,13,13,13,1,Stimuli/testStimuliCube/6u_s_7_s.png,Stimuli/testStimuliCube/6u_d_7_s.png,1,1,,,,,,,,
,,,,,,,19,female,A,2020-05-01_15h12.31.935,Remembering_Displays,2020.1.2,MacIntel,60,9,1,0.805,1,1,0.886305,0,14,14,8,1,Stimuli/testStimuliCube/6u_s_11.png,Stimuli/testStimuliCube/6u_s_11.png,0,9,,,,,,,,
,,,,,,,19,female,A,2020-05-01_15h12.31.935,Remembering_Displays,2020.1.2,MacIntel,60,9,1,0.638465,9,1,1.30441,0,15,15,22,1,Stimuli/testStimuliCube/6u_s_12_s.png,Stimuli/testStimuliCube/6u_s_12_s.png,0,9,,,,,,,,
,,,,,,,19,female,A,2020-05-01_15h12.31.935,Remembering_Displays,2020.1.2,MacIntel,60,9,1,0.72027,1,1,0.99353,0,16,16,6,1,Stimuli/testStimuliCube/6u_s_10.png,Stimuli/testStimuliCube/6u_s_10.png,0,9,,,,,,,,
,,,,,,,19,female,A,2020-05-01_15h12.31.935,Remembering_Displays,2020.1.2,MacIntel,60,9,1,1.02317,1,1,0.601755,0,17,17,14,1,Stimuli/testStimuliCube/6u_s_8_s.png,Stimuli/testStimuliCube/6u_s_8_s.png,0,9,,,,,,,,
,,,,,,,19,female,A,2020-05-01_15h12.31.935,Remembering_Displays,2020.1.2,MacIntel,60,1,1,0.83208,9,1,1.070335,0,18,18,19,1,Stimuli/testStimuliCube/6u_s_10_s.png,Stimuli/testStimuliCube/6u_d_10_s.png,1,1,,,,,,,,
,,,,,,,19,female,A,2020-05-01_15h12.31.935,Remembering_Displays,2020.1.2,MacIntel,60,1,1,0.64913,9,0,1.176955,0,19,19,21,1,Stimuli/testStimuliCube/6u_s_11_s.png,Stimuli/testStimuliCube/6u_d_11_s.png,1,1,,,,,,,,
,,,,,,,19,female,A,2020-05-01_15h12.31.935,Remembering_Displays,2020.1.2,MacIntel,60,1,1,0.881275,1,1,0.676325,0,20,20,15,1,Stimuli/testStimuliCube/6u_s_8_s.png,Stimuli/testStimuliCube/6u_d_8_s.png,1,1,,,,,,,,
,,,,,,,19,female,A,2020-05-01_15h12.31.935,Remembering_Displays,2020.1.2,MacIntel,60,1,1,0.912365,1,1,0.51851,0,21,21,3,1,Stimuli/testStimuliCube/6u_s_8.png,Stimuli/testStimuliCube/6u_d_8.png,1,1,,,,,,,,
,,,,,,,19,female,A,2020-05-01_15h12.31.935,Remembering_Displays,2020.1.2,MacIntel,60,9,1,0.938965,1,1,0.51219,0,22,22,0,1,Stimuli/testStimuliCube/6u_s_7.png,Stimuli/testStimuliCube/6u_s_7.png,0,9,,,,,,,,
,,,,,,,19,female,A,2020-05-01_15h12.31.935,Remembering_Displays,2020.1.2,MacIntel,60,9,0,0.9641,1,1,1.053615,0,23,23,5,1,Stimuli/testStimuliCube/6u_s_9.png,Stimuli/testStimuliCube/6u_d_9.png,1,1,,,,,,,,
,,,,,,,19,female,A,2020-05-01_15h12.31.935,Remembering_Displays,2020.1.2,MacIntel,60,,,,,,,,,,,,,,,,0,7,7,7,1,Stimuli/trialListCubes2.xlsx,Instructions/instr_19.png,Progress: 144 of 192 trials completed
,,,,,,,19,female,A,2020-05-01_15h12.31.935,Remembering_Displays,2020.1.2,MacIntel,60,1,0,1.144305,1,1,1.42888,0,0,0,12,1,Stimuli/testStimuliSquare/6u_s_19_s_2D.png,Stimuli/testStimuliSquare/6u_s_19_s_2D.png,0,9,,,,,,,,
,,,,,,,19,female,A,2020-05-01_15h12.31.935,Remembering_Displays,2020.1.2,MacIntel,60,9,1,0.63977,9,1,0.56893,0,1,1,22,1,Stimuli/testStimuliSquare/6u_s_24_s_2D.png,Stimuli/testStimuliSquare/6u_s_24_s_2D.png,0,9,,,,,,,,
,,,,,,,19,female,A,2020-05-01_15h12.31.935,Remembering_Displays,2020.1.2,MacIntel,60,9,1,0.65341,9,1,0.504645,0,2,2,0,1,Stimuli/testStimuliSquare/6u_s_19_2D.png,Stimuli/testStimuliSquare/6u_s_19_2D.png,0,9,,,,,,,,
,,,,,,,19,female,A,2020-05-01_15h12.31.935,Remembering_Displays,2020.1.2,MacIntel,60,9,1,0.62312,1,1,1.93125,0,3,3,8,1,Stimuli/testStimuliSquare/6u_s_23_2D.png,Stimuli/testStimuliSquare/6u_s_23_2D.png,0,9,,,,,,,,
,,,,,,,19,female,A,2020-05-01_15h12.31.935,Remembering_Displays,2020.1.2,MacIntel,60,1,1,0.778995,9,1,0.629915,0,4,4,13,1,Stimuli/testStimuliSquare/6u_s_19_s_2D.png,Stimuli/testStimuliSquare/6u_d_19_s_2D.png,1,1,,,,,,,,
,,,,,,,19,female,A,2020-05-01_15h12.31.935,Remembering_Displays,2020.1.2,MacIntel,60,1,1,1.002745,9,1,0.774465,0,5,5,9,1,Stimuli/testStimuliSquare/6u_s_23_2D.png,Stimuli/testStimuliSquare/6u_d_23_2D.png,1,1,,,,,,,,
,,,,,,,19,female,A,2020-05-01_15h12.31.935,Remembering_Displays,2020.1.2,MacIntel,60,1,1,0.762275,9,0,0.91443,0,6,6,7,1,Stimuli/testStimuliSquare/6u_s_22_2D.png,Stimuli/testStimuliSquare/6u_d_22_2D.png,1,1,,,,,,,,
,,,,,,,19,female,A,2020-05-01_15h12.31.935,Remembering_Displays,2020.1.2,MacIntel,60,1,0,0.964105,1,1,1.094705,0,7,7,18,1,Stimuli/testStimuliSquare/6u_s_22_s_2D.png,Stimuli/testStimuliSquare/6u_s_22_s_2D.png,0,9,,,,,,,,
,,,,,,,19,female,A,2020-05-01_15h12.31.935,Remembering_Displays,2020.1.2,MacIntel,60,1,1,1.04918,9,1,0.652365,0,8,8,1,1,Stimuli/testStimuliSquare/6u_s_19_2D.png,Stimuli/testStimuliSquare/6u_d_19_2D.png,1,1,,,,,,,,
,,,,,,,19,female,A,2020-05-01_15h12.31.935,Remembering_Displays,2020.1.2,MacIntel,60,1,1,0.69931,1,1,0.88369,0,9,9,11,1,Stimuli/testStimuliSquare/6u_s_24_2D.png,Stimuli/testStimuliSquare/6u_d_24_2D.png,1,1,,,,,,,,
,,,,,,,19,female,A,2020-05-01_15h12.31.935,Remembering_Displays,2020.1.2,MacIntel,60,1,0,0.872365,1,1,0.585695,0,10,10,6,1,Stimuli/testStimuliSquare/6u_s_22_2D.png,Stimuli/testStimuliSquare/6u_s_22_2D.png,0,9,,,,,,,,
,,,,,,,19,female,A,2020-05-01_15h12.31.935,Remembering_Displays,2020.1.2,MacIntel,60,9,1,0.59581,1,1,0.7115,0,11,11,10,1,Stimuli/testStimuliSquare/6u_s_24_2D.png,Stimuli/testStimuliSquare/6u_s_24_2D.png,0,9,,,,,,,,
,,,,,,,19,female,A,2020-05-01_15h12.31.935,Remembering_Displays,2020.1.2,MacIntel,60,1,1,1.295285,1,1,0.5227,0,12,12,15,1,Stimuli/testStimuliSquare/6u_s_20_s_2D.png,Stimuli/testStimuliSquare/6u_d_20_s_2D.png,1,1,,,,,,,,
,,,,,,,19,female,A,2020-05-01_15h12.31.935,Remembering_Displays,2020.1.2,MacIntel,60,1,1,0.872535,1,1,0.70192,0,13,13,5,1,Stimuli/testStimuliSquare/6u_s_21_2D.png,Stimuli/testStimuliSquare/6u_d_21_2D.png,1,1,,,,,,,,
,,,,,,,19,female,A,2020-05-01_15h12.31.935,Remembering_Displays,2020.1.2,MacIntel,60,9,1,0.876105,1,1,0.49981,0,14,14,16,1,Stimuli/testStimuliSquare/6u_s_21_s_2D.png,Stimuli/testStimuliSquare/6u_s_21_s_2D.png,0,9,,,,,,,,
,,,,,,,19,female,A,2020-05-01_15h12.31.935,Remembering_Displays,2020.1.2,MacIntel,60,1,1,0.811965,1,1,0.570235,0,15,15,17,1,Stimuli/testStimuliSquare/6u_s_21_s_2D.png,Stimuli/testStimuliSquare/6u_d_21_s_2D.png,1,1,,,,,,,,
,,,,,,,19,female,A,2020-05-01_15h12.31.935,Remembering_Displays,2020.1.2,MacIntel,60,1,0,1.1123,9,1,0.49178,0,16,16,20,1,Stimuli/testStimuliSquare/6u_s_23_s_2D.png,Stimuli/testStimuliSquare/6u_s_23_s_2D.png,0,9,,,,,,,,
,,,,,,,19,female,A,2020-05-01_15h12.31.935,Remembering_Displays,2020.1.2,MacIntel,60,1,1,0.649965,1,1,0.669355,0,17,17,19,1,Stimuli/testStimuliSquare/6u_s_22_s_2D.png,Stimuli/testStimuliSquare/6u_d_22_s_2D.png,1,1,,,,,,,,
,,,,,,,19,female,A,2020-05-01_15h12.31.935,Remembering_Displays,2020.1.2,MacIntel,60,1,1,0.68871,1,1,1.211625,0,18,18,3,1,Stimuli/testStimuliSquare/6u_s_20_2D.png,Stimuli/testStimuliSquare/6u_d_20_2D.png,1,1,,,,,,,,
,,,,,,,19,female,A,2020-05-01_15h12.31.935,Remembering_Displays,2020.1.2,MacIntel,60,9,1,0.988065,9,1,0.60557,0,19,19,4,1,Stimuli/testStimuliSquare/6u_s_21_2D.png,Stimuli/testStimuliSquare/6u_s_21_2D.png,0,9,,,,,,,,
,,,,,,,19,female,A,2020-05-01_15h12.31.935,Remembering_Displays,2020.1.2,MacIntel,60,9,1,0.69138,1,1,0.554735,0,20,20,2,1,Stimuli/testStimuliSquare/6u_s_20_2D.png,Stimuli/testStimuliSquare/6u_s_20_2D.png,0,9,,,,,,,,
,,,,,,,19,female,A,2020-05-01_15h12.31.935,Remembering_Displays,2020.1.2,MacIntel,60,9,0,1.0164,1,1,0.84643,0,21,21,23,1,Stimuli/testStimuliSquare/6u_s_24_s_2D.png,Stimuli/testStimuliSquare/6u_d_24_s_2D.png,1,1,,,,,,,,
,,,,,,,19,female,A,2020-05-01_15h12.31.935,Remembering_Displays,2020.1.2,MacIntel,60,9,1,0.9388,1,1,1.060495,0,22,22,14,1,Stimuli/testStimuliSquare/6u_s_20_s_2D.png,Stimuli/testStimuliSquare/6u_s_20_s_2D.png,0,9,,,,,,,,
,,,,,,,19,female,A,2020-05-01_15h12.31.935,Remembering_Displays,2020.1.2,MacIntel,60,1,1,0.827965,9,1,1.025345,0,23,23,21,1,Stimuli/testStimuliSquare/6u_s_23_s_2D.png,Stimuli/testStimuliSquare/6u_d_23_s_2D.png,1,1,,,,,,,,
,,,,,,,19,female,A,2020-05-01_15h12.31.935,Remembering_Displays,2020.1.2,MacIntel,60,,,,,,,,,,,,,,,,0,8,8,8,1,Stimuli/trialListSquares4.xlsx,Instructions/instr_18.png,Progress: 168 of 192 trials completed
,,,,,,,19,female,A,2020-05-01_15h12.31.935,Remembering_Displays,2020.1.2,MacIntel,60,9,0,0.882755,9,1,0.64014,0,0,0,1,1,Stimuli/testStimuliCube/6u_s_1.png,Stimuli/testStimuliCube/6u_d_1.png,1,1,,,,,,,,
,,,,,,,19,female,A,2020-05-01_15h12.31.935,Remembering_Displays,2020.1.2,MacIntel,60,1,1,0.86629,1,0,1.054175,0,1,1,9,1,Stimuli/testStimuliCube/6u_s_5.png,Stimuli/testStimuliCube/6u_d_5.png,1,1,,,,,,,,
,,,,,,,19,female,A,2020-05-01_15h12.31.935,Remembering_Displays,2020.1.2,MacIntel,60,9,1,0.92079,9,1,1.22089,0,2,2,0,1,Stimuli/testStimuliCube/6u_s_1.png,Stimuli/testStimuliCube/6u_s_1.png,0,9,,,,,,,,
,,,,,,,19,female,A,2020-05-01_15h12.31.935,Remembering_Displays,2020.1.2,MacIntel,60,9,0,0.753525,9,1,0.608595,0,3,3,23,1,Stimuli/testStimuliCube/6u_s_6_s.png,Stimuli/testStimuliCube/6u_d_6_s.png,1,1,,,,,,,,
,,,,,,,19,female,A,2020-05-01_15h12.31.935,Remembering_Displays,2020.1.2,MacIntel,60,9,0,0.94913,1,1,0.590285,0,4,4,19,1,Stimuli/testStimuliCube/6u_s_4_s.png,Stimuli/testStimuliCube/6u_d_4_s.png,1,1,,,,,,,,
,,,,,,,19,female,A,2020-05-01_15h12.31.935,Remembering_Displays,2020.1.2,MacIntel,60,9,1,1.17189,1,0,0.80413,0,5,5,12,1,Stimuli/testStimuliCube/6u_s_1_s.png,Stimuli/testStimuliCube/6u_s_1_s.png,0,9,,,,,,,,
,,,,,,,19,female,A,2020-05-01_15h12.31.935,Remembering_Displays,2020.1.2,MacIntel,60,1,1,0.899045,9,1,1.96645,0,6,6,17,1,Stimuli/testStimuliCube/6u_s_3_s.png,Stimuli/testStimuliCube/6u_d_3_s.png,1,1,,,,,,,,
,,,,,,,19,female,A,2020-05-01_15h12.31.935,Remembering_Displays,2020.1.2,MacIntel,60,9,1,0.92161,1,1,0.909445,0,7,7,16,1,Stimuli/testStimuliCube/6u_s_3_s.png,Stimuli/testStimuliCube/6u_s_3_s.png,0,9,,,,,,,,
,,,,,,,19,female,A,2020-05-01_15h12.31.935,Remembering_Displays,2020.1.2,MacIntel,60,9,1,0.755285,9,1,0.552195,0,8,8,6,1,Stimuli/testStimuliCube/6u_s_4.png,Stimuli/testStimuliCube/6u_s_4.png,0,9,,,,,,,,
,,,,,,,19,female,A,2020-05-01_15h12.31.935,Remembering_Displays,2020.1.2,MacIntel,60,1,1,0.808855,9,1,1.49986,0,9,9,7,1,Stimuli/testStimuliCube/6u_s_4.png,Stimuli/testStimuliCube/6u_d_4.png,1,1,,,,,,,,
,,,,,,,19,female,A,2020-05-01_15h12.31.935,Remembering_Displays,2020.1.2,MacIntel,60,9,0,0.781665,9,1,0.778845,0,10,10,13,1,Stimuli/testStimuliCube/6u_s_1_s.png,Stimuli/testStimuliCube/6u_d_1_s.png,1,1,,,,,,,,
,,,,,,,19,female,A,2020-05-01_15h12.31.935,Remembering_Displays,2020.1.2,MacIntel,60,9,0,0.912655,1,1,0.6487,0,11,11,3,1,Stimuli/testStimuliCube/6u_s_2.png,Stimuli/testStimuliCube/6u_d_2.png,1,1,,,,,,,,
,,,,,,,19,female,A,2020-05-01_15h12.31.935,Remembering_Displays,2020.1.2,MacIntel,60,9,1,0.589475,9,1,0.876365,0,12,12,20,1,Stimuli/testStimuliCube/6u_s_5_s.png,Stimuli/testStimuliCube/6u_s_5_s.png,0,9,,,,,,,,
,,,,,,,19,female,A,2020-05-01_15h12.31.935,Remembering_Displays,2020.1.2,MacIntel,60,9,1,0.745555,9,1,0.40534,0,13,13,22,1,Stimuli/testStimuliCube/6u_s_6_s.png,Stimuli/testStimuliCube/6u_s_6_s.png,0,9,,,,,,,,
,,,,,,,19,female,A,2020-05-01_15h12.31.935,Remembering_Displays,2020.1.2,MacIntel,60,1,0,0.871365,9,1,0.51877,0,14,14,18,1,Stimuli/testStimuliCube/6u_s_4_s.png,Stimuli/testStimuliCube/6u_s_4_s.png,0,9,,,,,,,,
,,,,,,,19,female,A,2020-05-01_15h12.31.935,Remembering_Displays,2020.1.2,MacIntel,60,9,0,0.585185,9,1,0.459165,0,15,15,11,1,Stimuli/testStimuliCube/6u_s_6.png,Stimuli/testStimuliCube/6u_d_6.png,1,1,,,,,,,,
,,,,,,,19,female,A,2020-05-01_15h12.31.935,Remembering_Displays,2020.1.2,MacIntel,60,1,1,0.59764,1,1,0.6358,0,16,16,21,1,Stimuli/testStimuliCube/6u_s_5_s.png,Stimuli/testStimuliCube/6u_d_5_s.png,1,1,,,,,,,,
,,,,,,,19,female,A,2020-05-01_15h12.31.935,Remembering_Displays,2020.1.2,MacIntel,60,9,1,0.74103,9,1,0.43784,0,17,17,8,1,Stimuli/testStimuliCube/6u_s_5.png,Stimuli/testStimuliCube/6u_s_5.png,0,9,,,,,,,,
,,,,,,,19,female,A,2020-05-01_15h12.31.935,Remembering_Displays,2020.1.2,MacIntel,60,9,0,0.50489,9,1,0.57166,0,18,18,15,1,Stimuli/testStimuliCube/6u_s_2_s.png,Stimuli/testStimuliCube/6u_d_2_s.png,1,1,,,,,,,,
,,,,,,,19,female,A,2020-05-01_15h12.31.935,Remembering_Displays,2020.1.2,MacIntel,60,9,1,0.65579,9,1,0.72726,0,19,19,10,1,Stimuli/testStimuliCube/6u_s_6.png,Stimuli/testStimuliCube/6u_s_6.png,0,9,,,,,,,,
,,,,,,,19,female,A,2020-05-01_15h12.31.935,Remembering_Displays,2020.1.2,MacIntel,60,9,1,0.80777,1,1,0.488325,0,20,20,2,1,Stimuli/testStimuliCube/6u_s_2.png,Stimuli/testStimuliCube/6u_s_2.png,0,9,,,,,,,,
,,,,,,,19,female,A,2020-05-01_15h12.31.935,Remembering_Displays,2020.1.2,MacIntel,60,9,1,0.37298,1,1,1.29722,0,21,21,14,1,Stimuli/testStimuliCube/6u_s_2_s.png,Stimuli/testStimuliCube/6u_s_2_s.png,0,9,,,,,,,,
,,,,,,,19,female,A,2020-05-01_15h12.31.935,Remembering_Displays,2020.1.2,MacIntel,60,1,1,0.700925,9,1,1.09095,0,22,22,5,1,Stimuli/testStimuliCube/6u_s_3.png,Stimuli/testStimuliCube/6u_d_3.png,1,1,,,,,,,,
,,,,,,,19,female,A,2020-05-01_15h12.31.935,Remembering_Displays,2020.1.2,MacIntel,60,9,1,0.62645,1,1,0.48801,0,23,23,4,1,Stimuli/testStimuliCube/6u_s_3.png,Stimuli/testStimuliCube/6u_s_3.png,0,9,,,,,,,,