instr_Loop.thisRepN,instr_Loop.thisTrialN,instr_Loop.thisN,instr_Loop.thisIndex,instr_Loop.ran,instructionImage,time,age,sex (female/male),order,date,expName,psychopyVersion,OS,frameRate,struc_judge_respond.keys,struc_judge_respond.corr,dual_respond.keys,dual_respond.corr,dual_respond.rt,trials.thisRepN,trials.thisTrialN,trials.thisN,trials.thisIndex,trials.ran,stim1,stim2,isAnyChange,corrAns,struc_judge_respond.rt,selectBlock.thisRepN,selectBlock.thisTrialN,selectBlock.thisN,selectBlock.thisIndex,selectBlock.ran,condsFile,condsImage,remaining
0,0,0,0,1,Instructions/instr_1.png,5,18,Male,B,2020-05-02_00h24.32.457,Remembering_Displays,2020.1.2,MacIntel,60,,,,,,,,,,,,,,,,,,,,,,,
0,1,1,1,1,Instructions/instr_2.png,3,18,Male,B,2020-05-02_00h24.32.457,Remembering_Displays,2020.1.2,MacIntel,60,,,,,,,,,,,,,,,,,,,,,,,
0,2,2,2,1,Instructions/instr_3.png,5,18,Male,B,2020-05-02_00h24.32.457,Remembering_Displays,2020.1.2,MacIntel,60,,,,,,,,,,,,,,,,,,,,,,,
0,3,3,3,1,Instructions/instr_4.png,1,18,Male,B,2020-05-02_00h24.32.457,Remembering_Displays,2020.1.2,MacIntel,60,,,,,,,,,,,,,,,,,,,,,,,
0,4,4,4,1,Instructions/instr_5.png,1,18,Male,B,2020-05-02_00h24.32.457,Remembering_Displays,2020.1.2,MacIntel,60,,,,,,,,,,,,,,,,,,,,,,,
0,5,5,5,1,Instructions/instr_6.png,1,18,Male,B,2020-05-02_00h24.32.457,Remembering_Displays,2020.1.2,MacIntel,60,,,,,,,,,,,,,,,,,,,,,,,
0,6,6,6,1,Instructions/instr_7.png,1,18,Male,B,2020-05-02_00h24.32.457,Remembering_Displays,2020.1.2,MacIntel,60,,,,,,,,,,,,,,,,,,,,,,,
0,7,7,7,1,Instructions/instr_8.png,3,18,Male,B,2020-05-02_00h24.32.457,Remembering_Displays,2020.1.2,MacIntel,60,,,,,,,,,,,,,,,,,,,,,,,
0,8,8,8,1,Instructions/instr_9.png,3,18,Male,B,2020-05-02_00h24.32.457,Remembering_Displays,2020.1.2,MacIntel,60,,,,,,,,,,,,,,,,,,,,,,,
0,9,9,9,1,Instructions/instr_10.png,3,18,Male,B,2020-05-02_00h24.32.457,Remembering_Displays,2020.1.2,MacIntel,60,,,,,,,,,,,,,,,,,,,,,,,
0,10,10,10,1,Instructions/instr_11.png,3,18,Male,B,2020-05-02_00h24.32.457,Remembering_Displays,2020.1.2,MacIntel,60,,,,,,,,,,,,,,,,,,,,,,,
0,11,11,11,1,Instructions/instr_12.png,3,18,Male,B,2020-05-02_00h24.32.457,Remembering_Displays,2020.1.2,MacIntel,60,,,,,,,,,,,,,,,,,,,,,,,
0,12,12,12,1,Instructions/instr_13.png,3,18,Male,B,2020-05-02_00h24.32.457,Remembering_Displays,2020.1.2,MacIntel,60,,,,,,,,,,,,,,,,,,,,,,,
0,13,13,13,1,Instructions/instr_14.png,3,18,Male,B,2020-05-02_00h24.32.457,Remembering_Displays,2020.1.2,MacIntel,60,,,,,,,,,,,,,,,,,,,,,,,
0,14,14,14,1,Instructions/instr_15.png,3,18,Male,B,2020-05-02_00h24.32.457,Remembering_Displays,2020.1.2,MacIntel,60,,,,,,,,,,,,,,,,,,,,,,,
0,15,15,15,1,Instructions/instr_16.png,5,18,Male,B,2020-05-02_00h24.32.457,Remembering_Displays,2020.1.2,MacIntel,60,,,,,,,,,,,,,,,,,,,,,,,
,,,,,,,18,Male,B,2020-05-02_00h24.32.457,Remembering_Displays,2020.1.2,MacIntel,60,,0,1,0,2.41768,0,0,0,4,1,Stimuli/practiceStimuliCube/practice1_s.png,Stimuli/practiceStimuliCube/practice1_d.png,1,1,,,,,,,,,
,,,,,,,18,Male,B,2020-05-02_00h24.32.457,Remembering_Displays,2020.1.2,MacIntel,60,9,1,1,1,0.822965,0,1,1,5,1,Stimuli/practiceStimuliCube/practice2_s.png,Stimuli/practiceStimuliCube/practice2_s.png,0,9,1.3179,,,,,,,,
,,,,,,,18,Male,B,2020-05-02_00h24.32.457,Remembering_Displays,2020.1.2,MacIntel,60,,0,9,1,1.01546,0,2,2,6,1,Stimuli/practiceStimuliCube/practice3_s.png,Stimuli/practiceStimuliCube/practice3_d.png,1,1,,,,,,,,,
,,,,,,,18,Male,B,2020-05-02_00h24.32.457,Remembering_Displays,2020.1.2,MacIntel,60,9,0,9,1,0.861855,0,3,3,1,1,Stimuli/practiceStimuliCube/practice2_s.png,Stimuli/practiceStimuliCube/practice2_d.png,1,1,1.339795,,,,,,,,
,,,,,,,18,Male,B,2020-05-02_00h24.32.457,Remembering_Displays,2020.1.2,MacIntel,60,9,1,9,1,0.71857,0,4,4,7,1,Stimuli/practiceStimuliCube/practice4_s.png,Stimuli/practiceStimuliCube/practice4_s.png,0,9,1.22596,,,,,,,,
,,,,,,,18,Male,B,2020-05-02_00h24.32.457,Remembering_Displays,2020.1.2,MacIntel,60,9,1,9,1,0.403485,0,5,5,0,1,Stimuli/practiceStimuliCube/practice1_s.png,Stimuli/practiceStimuliCube/practice1_s.png,0,9,0.58702,,,,,,,,
,,,,,,,18,Male,B,2020-05-02_00h24.32.457,Remembering_Displays,2020.1.2,MacIntel,60,9,1,1,1,0.503815,0,6,6,2,1,Stimuli/practiceStimuliCube/practice3_s.png,Stimuli/practiceStimuliCube/practice3_s.png,0,9,0.52701,,,,,,,,
,,,,,,,18,Male,B,2020-05-02_00h24.32.457,Remembering_Displays,2020.1.2,MacIntel,60,9,0,1,1,0.902635,0,7,7,3,1,Stimuli/practiceStimuliCube/practice4_s.png,Stimuli/practiceStimuliCube/practice4_d.png,1,1,1.327365,,,,,,,,
,,,,,,,18,Male,B,2020-05-02_00h24.32.457,Remembering_Displays,2020.1.2,MacIntel,60,,,,,,,,,,,,,,,,0,0,0,0,1,Stimuli/practiceListCubes.xlsx,Instructions/instr_practice_B.png,Practice trials completed
,,,,,,,18,Male,B,2020-05-02_00h24.32.457,Remembering_Displays,2020.1.2,MacIntel,60,9,1,1,0,0.45661,0,0,0,14,1,Stimuli/testStimuliCube/6u_s_2_s.png,Stimuli/testStimuliCube/6u_s_2_s.png,0,9,0.99205,,,,,,,,
,,,,,,,18,Male,B,2020-05-02_00h24.32.457,Remembering_Displays,2020.1.2,MacIntel,60,9,1,9,1,0.34278,0,1,1,6,1,Stimuli/testStimuliCube/6u_s_4.png,Stimuli/testStimuliCube/6u_s_4.png,0,9,0.8069,,,,,,,,
,,,,,,,18,Male,B,2020-05-02_00h24.32.457,Remembering_Displays,2020.1.2,MacIntel,60,1,1,1,1,0.48667,0,2,2,1,1,Stimuli/testStimuliCube/6u_s_1.png,Stimuli/testStimuliCube/6u_d_1.png,1,1,0.71509,,,,,,,,
,,,,,,,18,Male,B,2020-05-02_00h24.32.457,Remembering_Displays,2020.1.2,MacIntel,60,1,1,1,1,0.83654,0,3,3,7,1,Stimuli/testStimuliCube/6u_s_4.png,Stimuli/testStimuliCube/6u_d_4.png,1,1,1.16346,,,,,,,,
,,,,,,,18,Male,B,2020-05-02_00h24.32.457,Remembering_Displays,2020.1.2,MacIntel,60,1,1,1,1,0.94757,0,4,4,13,1,Stimuli/testStimuliCube/6u_s_1_s.png,Stimuli/testStimuliCube/6u_d_1_s.png,1,1,0.79809,,,,,,,,
,,,,,,,18,Male,B,2020-05-02_00h24.32.457,Remembering_Displays,2020.1.2,MacIntel,60,1,1,1,1,0.689485,0,5,5,11,1,Stimuli/testStimuliCube/6u_s_6.png,Stimuli/testStimuliCube/6u_d_6.png,1,1,0.760945,,,,,,,,
,,,,,,,18,Male,B,2020-05-02_00h24.32.457,Remembering_Displays,2020.1.2,MacIntel,60,1,0,1,1,0.616955,0,6,6,4,1,Stimuli/testStimuliCube/6u_s_3.png,Stimuli/testStimuliCube/6u_s_3.png,0,9,0.761695,,,,,,,,
,,,,,,,18,Male,B,2020-05-02_00h24.32.457,Remembering_Displays,2020.1.2,MacIntel,60,1,1,9,1,0.83032,0,7,7,9,1,Stimuli/testStimuliCube/6u_s_5.png,Stimuli/testStimuliCube/6u_d_5.png,1,1,0.76106,,,,,,,,
,,,,,,,18,Male,B,2020-05-02_00h24.32.457,Remembering_Displays,2020.1.2,MacIntel,60,9,1,9,1,0.81823,0,8,8,16,1,Stimuli/testStimuliCube/6u_s_3_s.png,Stimuli/testStimuliCube/6u_s_3_s.png,0,9,1.15477,,,,,,,,
,,,,,,,18,Male,B,2020-05-02_00h24.32.457,Remembering_Displays,2020.1.2,MacIntel,60,1,1,1,1,0.563375,0,9,9,17,1,Stimuli/testStimuliCube/6u_s_3_s.png,Stimuli/testStimuliCube/6u_d_3_s.png,1,1,0.897415,,,,,,,,
,,,,,,,18,Male,B,2020-05-02_00h24.32.457,Remembering_Displays,2020.1.2,MacIntel,60,1,1,1,1,0.602245,0,10,10,3,1,Stimuli/testStimuliCube/6u_s_2.png,Stimuli/testStimuliCube/6u_d_2.png,1,1,0.7952,,,,,,,,
,,,,,,,18,Male,B,2020-05-02_00h24.32.457,Remembering_Displays,2020.1.2,MacIntel,60,1,1,1,1,0.744535,0,11,11,15,1,Stimuli/testStimuliCube/6u_s_2_s.png,Stimuli/testStimuliCube/6u_d_2_s.png,1,1,0.717035,,,,,,,,
,,,,,,,18,Male,B,2020-05-02_00h24.32.457,Remembering_Displays,2020.1.2,MacIntel,60,9,1,9,1,0.922485,0,12,12,10,1,Stimuli/testStimuliCube/6u_s_6.png,Stimuli/testStimuliCube/6u_s_6.png,0,9,1.337165,,,,,,,,
,,,,,,,18,Male,B,2020-05-02_00h24.32.457,Remembering_Displays,2020.1.2,MacIntel,60,9,1,1,1,1.01717,0,13,13,0,1,Stimuli/testStimuliCube/6u_s_1.png,Stimuli/testStimuliCube/6u_s_1.png,0,9,0.805795,,,,,,,,
,,,,,,,18,Male,B,2020-05-02_00h24.32.457,Remembering_Displays,2020.1.2,MacIntel,60,1,1,1,1,1.226025,0,14,14,21,1,Stimuli/testStimuliCube/6u_s_5_s.png,Stimuli/testStimuliCube/6u_d_5_s.png,1,1,0.83023,,,,,,,,
,,,,,,,18,Male,B,2020-05-02_00h24.32.457,Remembering_Displays,2020.1.2,MacIntel,60,9,1,9,1,0.733625,0,15,15,18,1,Stimuli/testStimuliCube/6u_s_4_s.png,Stimuli/testStimuliCube/6u_s_4_s.png,0,9,1.15747,,,,,,,,
,,,,,,,18,Male,B,2020-05-02_00h24.32.457,Remembering_Displays,2020.1.2,MacIntel,60,1,1,1,1,0.503605,0,16,16,19,1,Stimuli/testStimuliCube/6u_s_4_s.png,Stimuli/testStimuliCube/6u_d_4_s.png,1,1,0.78527,,,,,,,,
,,,,,,,18,Male,B,2020-05-02_00h24.32.457,Remembering_Displays,2020.1.2,MacIntel,60,9,1,1,1,0.516995,0,17,17,8,1,Stimuli/testStimuliCube/6u_s_5.png,Stimuli/testStimuliCube/6u_s_5.png,0,9,1.002485,,,,,,,,
,,,,,,,18,Male,B,2020-05-02_00h24.32.457,Remembering_Displays,2020.1.2,MacIntel,60,9,1,1,1,0.72437,0,18,18,12,1,Stimuli/testStimuliCube/6u_s_1_s.png,Stimuli/testStimuliCube/6u_s_1_s.png,0,9,0.8791,,,,,,,,
,,,,,,,18,Male,B,2020-05-02_00h24.32.457,Remembering_Displays,2020.1.2,MacIntel,60,1,1,9,1,1.204265,0,19,19,23,1,Stimuli/testStimuliCube/6u_s_6_s.png,Stimuli/testStimuliCube/6u_d_6_s.png,1,1,1.230995,,,,,,,,
,,,,,,,18,Male,B,2020-05-02_00h24.32.457,Remembering_Displays,2020.1.2,MacIntel,60,9,1,1,1,0.99715,0,20,20,2,1,Stimuli/testStimuliCube/6u_s_2.png,Stimuli/testStimuliCube/6u_s_2.png,0,9,1.413085,,,,,,,,
,,,,,,,18,Male,B,2020-05-02_00h24.32.457,Remembering_Displays,2020.1.2,MacIntel,60,9,1,9,1,0.639395,0,21,21,22,1,Stimuli/testStimuliCube/6u_s_6_s.png,Stimuli/testStimuliCube/6u_s_6_s.png,0,9,1.080265,,,,,,,,
,,,,,,,18,Male,B,2020-05-02_00h24.32.457,Remembering_Displays,2020.1.2,MacIntel,60,9,1,9,1,0.5575,0,22,22,20,1,Stimuli/testStimuliCube/6u_s_5_s.png,Stimuli/testStimuliCube/6u_s_5_s.png,0,9,1.07275,,,,,,,,
,,,,,,,18,Male,B,2020-05-02_00h24.32.457,Remembering_Displays,2020.1.2,MacIntel,60,1,1,9,1,0.650305,0,23,23,5,1,Stimuli/testStimuliCube/6u_s_3.png,Stimuli/testStimuliCube/6u_d_3.png,1,1,0.71089,,,,,,,,
,,,,,,,18,Male,B,2020-05-02_00h24.32.457,Remembering_Displays,2020.1.2,MacIntel,60,,,,,,,,,,,,,,,,0,1,1,1,1,Stimuli/trialListCubes1.xlsx,Instructions/instr_19.png,Progress: 24 of 192 trials completed
,,,,,,,18,Male,B,2020-05-02_00h24.32.457,Remembering_Displays,2020.1.2,MacIntel,60,1,1,1,1,0.6945,0,0,0,1,1,Stimuli/practiceStimuliSquare/practice2_s.png,Stimuli/practiceStimuliSquare/practice2_d.png,1,1,0.945205,,,,,,,,
,,,,,,,18,Male,B,2020-05-02_00h24.32.457,Remembering_Displays,2020.1.2,MacIntel,60,9,1,9,1,1.120755,0,1,1,2,1,Stimuli/practiceStimuliSquare/practice3_s.png,Stimuli/practiceStimuliSquare/practice3_s.png,0,9,0.883405,,,,,,,,
,,,,,,,18,Male,B,2020-05-02_00h24.32.457,Remembering_Displays,2020.1.2,MacIntel,60,9,1,9,1,0.475585,0,2,2,0,1,Stimuli/practiceStimuliSquare/practice1_s.png,Stimuli/practiceStimuliSquare/practice1_s.png,0,9,1.14165,,,,,,,,
,,,,,,,18,Male,B,2020-05-02_00h24.32.457,Remembering_Displays,2020.1.2,MacIntel,60,1,1,1,1,0.75962,0,3,3,3,1,Stimuli/practiceStimuliSquare/practice4_s.png,Stimuli/practiceStimuliSquare/practice4_d.png,1,1,0.8143,,,,,,,,
,,,,,,,18,Male,B,2020-05-02_00h24.32.457,Remembering_Displays,2020.1.2,MacIntel,60,1,1,1,1,0.584105,0,4,4,4,1,Stimuli/practiceStimuliSquare/practice1_s.png,Stimuli/practiceStimuliSquare/practice1_d.png,1,1,0.706845,,,,,,,,
,,,,,,,18,Male,B,2020-05-02_00h24.32.457,Remembering_Displays,2020.1.2,MacIntel,60,9,1,9,1,0.572965,0,5,5,5,1,Stimuli/practiceStimuliSquare/practice2_s.png,Stimuli/practiceStimuliSquare/practice2_s.png,0,9,0.925685,,,,,,,,
,,,,,,,18,Male,B,2020-05-02_00h24.32.457,Remembering_Displays,2020.1.2,MacIntel,60,9,1,9,1,0.454595,0,6,6,7,1,Stimuli/practiceStimuliSquare/practice4_s.png,Stimuli/practiceStimuliSquare/practice4_s.png,0,9,0.911185,,,,,,,,
,,,,,,,18,Male,B,2020-05-02_00h24.32.457,Remembering_Displays,2020.1.2,MacIntel,60,1,1,9,1,0.74601,0,7,7,6,1,Stimuli/practiceStimuliSquare/practice3_s.png,Stimuli/practiceStimuliSquare/practice3_d.png,1,1,0.7042,,,,,,,,
,,,,,,,18,Male,B,2020-05-02_00h24.32.457,Remembering_Displays,2020.1.2,MacIntel,60,,,,,,,,,,,,,,,,0,2,2,2,1,Stimuli/practiceListSquares.xlsx,Instructions/instr_practice_A.png,Practice trials completed
,,,,,,,18,Male,B,2020-05-02_00h24.32.457,Remembering_Displays,2020.1.2,MacIntel,60,1,1,1,1,1.196215,0,0,0,9,1,Stimuli/testStimuliSquare/6u_s_23_2D.png,Stimuli/testStimuliSquare/6u_d_23_2D.png,1,1,1.28347,,,,,,,,
,,,,,,,18,Male,B,2020-05-02_00h24.32.457,Remembering_Displays,2020.1.2,MacIntel,60,1,1,1,1,0.807655,0,1,1,23,1,Stimuli/testStimuliSquare/6u_s_24_s_2D.png,Stimuli/testStimuliSquare/6u_d_24_s_2D.png,1,1,1.006345,,,,,,,,
,,,,,,,18,Male,B,2020-05-02_00h24.32.457,Remembering_Displays,2020.1.2,MacIntel,60,9,1,1,1,0.49161,0,2,2,8,1,Stimuli/testStimuliSquare/6u_s_23_2D.png,Stimuli/testStimuliSquare/6u_s_23_2D.png,0,9,1.172005,,,,,,,,
,,,,,,,18,Male,B,2020-05-02_00h24.32.457,Remembering_Displays,2020.1.2,MacIntel,60,1,1,1,1,0.83489,0,3,3,21,1,Stimuli/testStimuliSquare/6u_s_23_s_2D.png,Stimuli/testStimuliSquare/6u_d_23_s_2D.png,1,1,1.1982,,,,,,,,
,,,,,,,18,Male,B,2020-05-02_00h24.32.457,Remembering_Displays,2020.1.2,MacIntel,60,9,1,1,1,0.47523,0,4,4,2,1,Stimuli/testStimuliSquare/6u_s_20_2D.png,Stimuli/testStimuliSquare/6u_s_20_2D.png,0,9,0.852655,,,,,,,,
,,,,,,,18,Male,B,2020-05-02_00h24.32.457,Remembering_Displays,2020.1.2,MacIntel,60,9,1,1,1,0.49075,0,5,5,14,1,Stimuli/testStimuliSquare/6u_s_20_s_2D.png,Stimuli/testStimuliSquare/6u_s_20_s_2D.png,0,9,0.87028,,,,,,,,
,,,,,,,18,Male,B,2020-05-02_00h24.32.457,Remembering_Displays,2020.1.2,MacIntel,60,1,1,1,1,0.57335,0,6,6,19,1,Stimuli/testStimuliSquare/6u_s_22_s_2D.png,Stimuli/testStimuliSquare/6u_d_22_s_2D.png,1,1,0.70355,,,,,,,,
,,,,,,,18,Male,B,2020-05-02_00h24.32.457,Remembering_Displays,2020.1.2,MacIntel,60,1,1,1,1,0.757745,0,7,7,17,1,Stimuli/testStimuliSquare/6u_s_21_s_2D.png,Stimuli/testStimuliSquare/6u_d_21_s_2D.png,1,1,0.596925,,,,,,,,
,,,,,,,18,Male,B,2020-05-02_00h24.32.457,Remembering_Displays,2020.1.2,MacIntel,60,1,1,9,1,1.016625,0,8,8,11,1,Stimuli/testStimuliSquare/6u_s_24_2D.png,Stimuli/testStimuliSquare/6u_d_24_2D.png,1,1,1.123675,,,,,,,,
,,,,,,,18,Male,B,2020-05-02_00h24.32.457,Remembering_Displays,2020.1.2,MacIntel,60,1,1,1,1,0.76869,0,9,9,5,1,Stimuli/testStimuliSquare/6u_s_21_2D.png,Stimuli/testStimuliSquare/6u_d_21_2D.png,1,1,0.858965,,,,,,,,
,,,,,,,18,Male,B,2020-05-02_00h24.32.457,Remembering_Displays,2020.1.2,MacIntel,60,1,1,1,1,0.784275,0,10,10,7,1,Stimuli/testStimuliSquare/6u_s_22_2D.png,Stimuli/testStimuliSquare/6u_d_22_2D.png,1,1,0.615275,,,,,,,,
,,,,,,,18,Male,B,2020-05-02_00h24.32.457,Remembering_Displays,2020.1.2,MacIntel,60,1,1,1,1,0.798375,0,11,11,13,1,Stimuli/testStimuliSquare/6u_s_19_s_2D.png,Stimuli/testStimuliSquare/6u_d_19_s_2D.png,1,1,1.00991,,,,,,,,
,,,,,,,18,Male,B,2020-05-02_00h24.32.457,Remembering_Displays,2020.1.2,MacIntel,60,1,1,1,1,0.374345,0,12,12,3,1,Stimuli/testStimuliSquare/6u_s_20_2D.png,Stimuli/testStimuliSquare/6u_d_20_2D.png,1,1,0.53673,,,,,,,,
,,,,,,,18,Male,B,2020-05-02_00h24.32.457,Remembering_Displays,2020.1.2,MacIntel,60,9,1,1,0,0.619945,0,13,13,20,1,Stimuli/testStimuliSquare/6u_s_23_s_2D.png,Stimuli/testStimuliSquare/6u_s_23_s_2D.png,0,9,1.078405,,,,,,,,
,,,,,,,18,Male,B,2020-05-02_00h24.32.457,Remembering_Displays,2020.1.2,MacIntel,60,9,1,9,1,0.517415,0,14,14,18,1,Stimuli/testStimuliSquare/6u_s_22_s_2D.png,Stimuli/testStimuliSquare/6u_s_22_s_2D.png,0,9,1.09802,,,,,,,,
,,,,,,,18,Male,B,2020-05-02_00h24.32.457,Remembering_Displays,2020.1.2,MacIntel,60,1,1,9,1,0.6584,0,15,15,1,1,Stimuli/testStimuliSquare/6u_s_19_2D.png,Stimuli/testStimuliSquare/6u_d_19_2D.png,1,1,0.97917,,,,,,,,
,,,,,,,18,Male,B,2020-05-02_00h24.32.457,Remembering_Displays,2020.1.2,MacIntel,60,1,1,9,0,0.617485,0,16,16,15,1,Stimuli/testStimuliSquare/6u_s_20_s_2D.png,Stimuli/testStimuliSquare/6u_d_20_s_2D.png,1,1,0.75402,,,,,,,,
,,,,,,,18,Male,B,2020-05-02_00h24.32.457,Remembering_Displays,2020.1.2,MacIntel,60,1,0,9,1,0.417275,0,17,17,6,1,Stimuli/testStimuliSquare/6u_s_22_2D.png,Stimuli/testStimuliSquare/6u_s_22_2D.png,0,9,1.00518,,,,,,,,
,,,,,,,18,Male,B,2020-05-02_00h24.32.457,Remembering_Displays,2020.1.2,MacIntel,60,9,1,9,1,0.709595,0,18,18,10,1,Stimuli/testStimuliSquare/6u_s_24_2D.png,Stimuli/testStimuliSquare/6u_s_24_2D.png,0,9,0.994965,,,,,,,,
,,,,,,,18,Male,B,2020-05-02_00h24.32.457,Remembering_Displays,2020.1.2,MacIntel,60,9,1,9,1,0.887935,0,19,19,22,1,Stimuli/testStimuliSquare/6u_s_24_s_2D.png,Stimuli/testStimuliSquare/6u_s_24_s_2D.png,0,9,0.84258,,,,,,,,
,,,,,,,18,Male,B,2020-05-02_00h24.32.457,Remembering_Displays,2020.1.2,MacIntel,60,9,1,9,1,0.703635,0,20,20,16,1,Stimuli/testStimuliSquare/6u_s_21_s_2D.png,Stimuli/testStimuliSquare/6u_s_21_s_2D.png,0,9,0.870985,,,,,,,,
,,,,,,,18,Male,B,2020-05-02_00h24.32.457,Remembering_Displays,2020.1.2,MacIntel,60,9,1,9,1,0.44401,0,21,21,12,1,Stimuli/testStimuliSquare/6u_s_19_s_2D.png,Stimuli/testStimuliSquare/6u_s_19_s_2D.png,0,9,0.6389,,,,,,,,
,,,,,,,18,Male,B,2020-05-02_00h24.32.457,Remembering_Displays,2020.1.2,MacIntel,60,9,1,1,1,0.42926,0,22,22,4,1,Stimuli/testStimuliSquare/6u_s_21_2D.png,Stimuli/testStimuliSquare/6u_s_21_2D.png,0,9,0.928605,,,,,,,,
,,,,,,,18,Male,B,2020-05-02_00h24.32.457,Remembering_Displays,2020.1.2,MacIntel,60,9,1,9,1,0.37104,0,23,23,0,1,Stimuli/testStimuliSquare/6u_s_19_2D.png,Stimuli/testStimuliSquare/6u_s_19_2D.png,0,9,0.597495,,,,,,,,
,,,,,,,18,Male,B,2020-05-02_00h24.32.457,Remembering_Displays,2020.1.2,MacIntel,60,,,,,,,,,,,,,,,,0,3,3,3,1,Stimuli/trialListSquares4.xlsx,Instructions/instr_18.png,Progress: 48 of 192 trials completed
,,,,,,,18,Male,B,2020-05-02_00h24.32.457,Remembering_Displays,2020.1.2,MacIntel,60,9,1,1,1,0.67151,0,0,0,8,1,Stimuli/testStimuliCube/6u_s_11.png,Stimuli/testStimuliCube/6u_s_11.png,0,9,0.929205,,,,,,,,
,,,,,,,18,Male,B,2020-05-02_00h24.32.457,Remembering_Displays,2020.1.2,MacIntel,60,9,0,9,1,0.637335,0,1,1,23,1,Stimuli/testStimuliCube/6u_s_12_s.png,Stimuli/testStimuliCube/6u_d_12_s.png,1,1,0.71824,,,,,,,,
,,,,,,,18,Male,B,2020-05-02_00h24.32.457,Remembering_Displays,2020.1.2,MacIntel,60,9,1,1,1,0.49993,0,2,2,4,1,Stimuli/testStimuliCube/6u_s_9.png,Stimuli/testStimuliCube/6u_s_9.png,0,9,0.75821,,,,,,,,
,,,,,,,18,Male,B,2020-05-02_00h24.32.457,Remembering_Displays,2020.1.2,MacIntel,60,9,0,1,1,0.85032,0,3,3,17,1,Stimuli/testStimuliCube/6u_s_9_s.png,Stimuli/testStimuliCube/6u_d_9_s.png,1,1,0.65035,,,,,,,,
,,,,,,,18,Male,B,2020-05-02_00h24.32.457,Remembering_Displays,2020.1.2,MacIntel,60,1,1,1,1,0.57007,0,4,4,15,1,Stimuli/testStimuliCube/6u_s_8_s.png,Stimuli/testStimuliCube/6u_d_8_s.png,1,1,0.85459,,,,,,,,
,,,,,,,18,Male,B,2020-05-02_00h24.32.457,Remembering_Displays,2020.1.2,MacIntel,60,9,1,1,1,0.491615,0,5,5,16,1,Stimuli/testStimuliCube/6u_s_9_s.png,Stimuli/testStimuliCube/6u_s_9_s.png,0,9,1.0123,,,,,,,,
,,,,,,,18,Male,B,2020-05-02_00h24.32.457,Remembering_Displays,2020.1.2,MacIntel,60,9,1,9,1,1.70379,0,6,6,2,1,Stimuli/testStimuliCube/6u_s_8.png,Stimuli/testStimuliCube/6u_s_8.png,0,9,0.85901,,,,,,,,
,,,,,,,18,Male,B,2020-05-02_00h24.32.457,Remembering_Displays,2020.1.2,MacIntel,60,1,1,9,1,0.36808,0,7,7,21,1,Stimuli/testStimuliCube/6u_s_11_s.png,Stimuli/testStimuliCube/6u_d_11_s.png,1,1,0.76842,,,,,,,,
,,,,,,,18,Male,B,2020-05-02_00h24.32.457,Remembering_Displays,2020.1.2,MacIntel,60,1,1,9,1,0.44786,0,8,8,19,1,Stimuli/testStimuliCube/6u_s_10_s.png,Stimuli/testStimuliCube/6u_d_10_s.png,1,1,0.63133,,,,,,,,
,,,,,,,18,Male,B,2020-05-02_00h24.32.457,Remembering_Displays,2020.1.2,MacIntel,60,1,0,1,1,1.449885,0,9,9,20,1,Stimuli/testStimuliCube/6u_s_11_s.png,Stimuli/testStimuliCube/6u_s_11_s.png,0,9,1.058475,,,,,,,,
,,,,,,,18,Male,B,2020-05-02_00h24.32.457,Remembering_Displays,2020.1.2,MacIntel,60,9,1,9,1,1.099985,0,10,10,18,1,Stimuli/testStimuliCube/6u_s_10_s.png,Stimuli/testStimuliCube/6u_s_10_s.png,0,9,0.954665,,,,,,,,
,,,,,,,18,Male,B,2020-05-02_00h24.32.457,Remembering_Displays,2020.1.2,MacIntel,60,1,1,1,1,0.77617,0,11,11,5,1,Stimuli/testStimuliCube/6u_s_9.png,Stimuli/testStimuliCube/6u_d_9.png,1,1,0.86021,,,,,,,,
,,,,,,,18,Male,B,2020-05-02_00h24.32.457,Remembering_Displays,2020.1.2,MacIntel,60,9,1,9,1,0.396935,0,12,12,22,1,Stimuli/testStimuliCube/6u_s_12_s.png,Stimuli/testStimuliCube/6u_s_12_s.png,0,9,1.207665,,,,,,,,
,,,,,,,18,Male,B,2020-05-02_00h24.32.457,Remembering_Displays,2020.1.2,MacIntel,60,1,1,1,1,0.78312,0,13,13,7,1,Stimuli/testStimuliCube/6u_s_10.png,Stimuli/testStimuliCube/6u_d_10.png,1,1,0.77585,,,,,,,,
,,,,,,,18,Male,B,2020-05-02_00h24.32.457,Remembering_Displays,2020.1.2,MacIntel,60,9,1,1,1,0.60581,0,14,14,0,1,Stimuli/testStimuliCube/6u_s_7.png,Stimuli/testStimuliCube/6u_s_7.png,0,9,0.696675,,,,,,,,
,,,,,,,18,Male,B,2020-05-02_00h24.32.457,Remembering_Displays,2020.1.2,MacIntel,60,9,1,1,1,0.52276,0,15,15,10,1,Stimuli/testStimuliCube/6u_s_12.png,Stimuli/testStimuliCube/6u_s_12.png,0,9,0.834525,,,,,,,,
,,,,,,,18,Male,B,2020-05-02_00h24.32.457,Remembering_Displays,2020.1.2,MacIntel,60,1,1,9,1,0.70201,0,16,16,9,1,Stimuli/testStimuliCube/6u_s_11.png,Stimuli/testStimuliCube/6u_d_11.png,1,1,0.85749,,,,,,,,
,,,,,,,18,Male,B,2020-05-02_00h24.32.457,Remembering_Displays,2020.1.2,MacIntel,60,9,1,1,1,0.82451,0,17,17,6,1,Stimuli/testStimuliCube/6u_s_10.png,Stimuli/testStimuliCube/6u_s_10.png,0,9,0.717565,,,,,,,,
,,,,,,,18,Male,B,2020-05-02_00h24.32.457,Remembering_Displays,2020.1.2,MacIntel,60,9,1,9,1,0.56738,0,18,18,12,1,Stimuli/testStimuliCube/6u_s_7_s.png,Stimuli/testStimuliCube/6u_s_7_s.png,0,9,0.82184,,,,,,,,
,,,,,,,18,Male,B,2020-05-02_00h24.32.457,Remembering_Displays,2020.1.2,MacIntel,60,1,1,9,1,0.917935,0,19,19,13,1,Stimuli/testStimuliCube/6u_s_7_s.png,Stimuli/testStimuliCube/6u_d_7_s.png,1,1,0.64976,,,,,,,,
,,,,,,,18,Male,B,2020-05-02_00h24.32.457,Remembering_Displays,2020.1.2,MacIntel,60,1,1,9,1,0.7209,0,20,20,11,1,Stimuli/testStimuliCube/6u_s_12.png,Stimuli/testStimuliCube/6u_d_12.png,1,1,0.847385,,,,,,,,
,,,,,,,18,Male,B,2020-05-02_00h24.32.457,Remembering_Displays,2020.1.2,MacIntel,60,9,1,1,1,0.854055,0,21,21,14,1,Stimuli/testStimuliCube/6u_s_8_s.png,Stimuli/testStimuliCube/6u_s_8_s.png,0,9,1.03841,,,,,,,,
,,,,,,,18,Male,B,2020-05-02_00h24.32.457,Remembering_Displays,2020.1.2,MacIntel,60,1,1,1,1,0.467455,0,22,22,1,1,Stimuli/testStimuliCube/6u_s_7.png,Stimuli/testStimuliCube/6u_d_7.png,1,1,0.676425,,,,,,,,
,,,,,,,18,Male,B,2020-05-02_00h24.32.457,Remembering_Displays,2020.1.2,MacIntel,60,1,1,9,1,0.440315,0,23,23,3,1,Stimuli/testStimuliCube/6u_s_8.png,Stimuli/testStimuliCube/6u_d_8.png,1,1,0.72596,,,,,,,,
,,,,,,,18,Male,B,2020-05-02_00h24.32.457,Remembering_Displays,2020.1.2,MacIntel,60,,,,,,,,,,,,,,,,0,4,4,4,1,Stimuli/trialListCubes2.xlsx,Instructions/instr_19.png,Progress: 72 of 192 trials completed
,,,,,,,18,Male,B,2020-05-02_00h24.32.457,Remembering_Displays,2020.1.2,MacIntel,60,1,1,9,1,1.492555,0,0,0,7,1,Stimuli/testStimuliSquare/6u_s_16_2D.png,Stimuli/testStimuliSquare/6u_d_16_2D.png,1,1,0.796135,,,,,,,,
,,,,,,,18,Male,B,2020-05-02_00h24.32.457,Remembering_Displays,2020.1.2,MacIntel,60,1,0,9,1,0.622825,0,1,1,2,1,Stimuli/testStimuliSquare/6u_s_14_2D.png,Stimuli/testStimuliSquare/6u_s_14_2D.png,0,9,1.143,,,,,,,,
,,,,,,,18,Male,B,2020-05-02_00h24.32.457,Remembering_Displays,2020.1.2,MacIntel,60,1,0,9,1,0.73132,0,2,2,8,1,Stimuli/testStimuliSquare/6u_s_17_2D.png,Stimuli/testStimuliSquare/6u_s_17_2D.png,0,9,0.826785,,,,,,,,
,,,,,,,18,Male,B,2020-05-02_00h24.32.457,Remembering_Displays,2020.1.2,MacIntel,60,1,1,1,1,0.498165,0,3,3,17,1,Stimuli/testStimuliSquare/6u_s_15_s_2D.png,Stimuli/testStimuliSquare/6u_d_15_s_2D.png,1,1,0.69863,,,,,,,,
,,,,,,,18,Male,B,2020-05-02_00h24.32.457,Remembering_Displays,2020.1.2,MacIntel,60,9,1,9,1,0.434235,0,4,4,12,1,Stimuli/testStimuliSquare/6u_s_13_s_2D.png,Stimuli/testStimuliSquare/6u_s_13_s_2D.png,0,9,1.251475,,,,,,,,
,,,,,,,18,Male,B,2020-05-02_00h24.32.457,Remembering_Displays,2020.1.2,MacIntel,60,1,1,9,1,0.35316,0,5,5,13,1,Stimuli/testStimuliSquare/6u_s_13_s_2D.png,Stimuli/testStimuliSquare/6u_d_13_s_2D.png,1,1,0.74335,,,,,,,,
,,,,,,,18,Male,B,2020-05-02_00h24.32.457,Remembering_Displays,2020.1.2,MacIntel,60,9,1,9,1,0.48499,0,6,6,4,1,Stimuli/testStimuliSquare/6u_s_15_2D.png,Stimuli/testStimuliSquare/6u_s_15_2D.png,0,9,0.883605,,,,,,,,
,,,,,,,18,Male,B,2020-05-02_00h24.32.457,Remembering_Displays,2020.1.2,MacIntel,60,1,1,1,1,0.580295,0,7,7,11,1,Stimuli/testStimuliSquare/6u_s_18_2D.png,Stimuli/testStimuliSquare/6u_d_18_2D.png,1,1,1.369775,,,,,,,,
,,,,,,,18,Male,B,2020-05-02_00h24.32.457,Remembering_Displays,2020.1.2,MacIntel,60,9,0,1,1,0.66206,0,8,8,1,1,Stimuli/testStimuliSquare/6u_s_13_2D.png,Stimuli/testStimuliSquare/6u_d_13_2D.png,1,1,0.904895,,,,,,,,
,,,,,,,18,Male,B,2020-05-02_00h24.32.457,Remembering_Displays,2020.1.2,MacIntel,60,1,1,1,1,0.689335,0,9,9,15,1,Stimuli/testStimuliSquare/6u_s_14_s_2D.png,Stimuli/testStimuliSquare/6u_d_14_s_2D.png,1,1,0.749425,,,,,,,,
,,,,,,,18,Male,B,2020-05-02_00h24.32.457,Remembering_Displays,2020.1.2,MacIntel,60,1,1,9,1,0.536865,0,10,10,23,1,Stimuli/testStimuliSquare/6u_s_18_s_2D.png,Stimuli/testStimuliSquare/6u_d_18_s_2D.png,1,1,1.132695,,,,,,,,
,,,,,,,18,Male,B,2020-05-02_00h24.32.457,Remembering_Displays,2020.1.2,MacIntel,60,9,1,1,1,0.73819,0,11,11,20,1,Stimuli/testStimuliSquare/6u_s_17_s_2D.png,Stimuli/testStimuliSquare/6u_s_17_s_2D.png,0,9,0.808875,,,,,,,,
,,,,,,,18,Male,B,2020-05-02_00h24.32.457,Remembering_Displays,2020.1.2,MacIntel,60,1,1,1,1,0.794125,0,12,12,9,1,Stimuli/testStimuliSquare/6u_s_17_2D.png,Stimuli/testStimuliSquare/6u_d_17_2D.png,1,1,0.880695,,,,,,,,
,,,,,,,18,Male,B,2020-05-02_00h24.32.457,Remembering_Displays,2020.1.2,MacIntel,60,1,1,9,1,0.64313,0,13,13,19,1,Stimuli/testStimuliSquare/6u_s_16_s_2D.png,Stimuli/testStimuliSquare/6u_d_16_s_2D.png,1,1,0.695105,,,,,,,,
,,,,,,,18,Male,B,2020-05-02_00h24.32.457,Remembering_Displays,2020.1.2,MacIntel,60,1,1,1,1,1.13071,0,14,14,3,1,Stimuli/testStimuliSquare/6u_s_14_2D.png,Stimuli/testStimuliSquare/6u_d_14_2D.png,1,1,0.61389,,,,,,,,
,,,,,,,18,Male,B,2020-05-02_00h24.32.457,Remembering_Displays,2020.1.2,MacIntel,60,1,1,1,1,0.97183,0,15,15,5,1,Stimuli/testStimuliSquare/6u_s_15_2D.png,Stimuli/testStimuliSquare/6u_d_15_2D.png,1,1,0.749215,,,,,,,,
,,,,,,,18,Male,B,2020-05-02_00h24.32.457,Remembering_Displays,2020.1.2,MacIntel,60,9,1,1,1,0.400765,0,16,16,22,1,Stimuli/testStimuliSquare/6u_s_18_s_2D.png,Stimuli/testStimuliSquare/6u_s_18_s_2D.png,0,9,0.79239,,,,,,,,
,,,,,,,18,Male,B,2020-05-02_00h24.32.457,Remembering_Displays,2020.1.2,MacIntel,60,9,1,9,1,0.483495,0,17,17,6,1,Stimuli/testStimuliSquare/6u_s_16_2D.png,Stimuli/testStimuliSquare/6u_s_16_2D.png,0,9,0.739195,,,,,,,,
,,,,,,,18,Male,B,2020-05-02_00h24.32.457,Remembering_Displays,2020.1.2,MacIntel,60,9,1,1,1,0.484285,0,18,18,14,1,Stimuli/testStimuliSquare/6u_s_14_s_2D.png,Stimuli/testStimuliSquare/6u_s_14_s_2D.png,0,9,1.02672,,,,,,,,
,,,,,,,18,Male,B,2020-05-02_00h24.32.457,Remembering_Displays,2020.1.2,MacIntel,60,9,1,9,1,0.71098,0,19,19,10,1,Stimuli/testStimuliSquare/6u_s_18_2D.png,Stimuli/testStimuliSquare/6u_s_18_2D.png,0,9,0.905165,,,,,,,,
,,,,,,,18,Male,B,2020-05-02_00h24.32.457,Remembering_Displays,2020.1.2,MacIntel,60,9,1,9,1,0.42092,0,20,20,0,1,Stimuli/testStimuliSquare/6u_s_13_2D.png,Stimuli/testStimuliSquare/6u_s_13_2D.png,0,9,0.780825,,,,,,,,
,,,,,,,18,Male,B,2020-05-02_00h24.32.457,Remembering_Displays,2020.1.2,MacIntel,60,9,1,1,1,0.700965,0,21,21,18,1,Stimuli/testStimuliSquare/6u_s_16_s_2D.png,Stimuli/testStimuliSquare/6u_s_16_s_2D.png,0,9,0.740555,,,,,,,,
,,,,,,,18,Male,B,2020-05-02_00h24.32.457,Remembering_Displays,2020.1.2,MacIntel,60,9,0,9,1,0.690495,0,22,22,21,1,Stimuli/testStimuliSquare/6u_s_17_s_2D.png,Stimuli/testStimuliSquare/6u_d_17_s_2D.png,1,1,0.607345,,,,,,,,
,,,,,,,18,Male,B,2020-05-02_00h24.32.457,Remembering_Displays,2020.1.2,MacIntel,60,9,1,1,1,0.400515,0,23,23,16,1,Stimuli/testStimuliSquare/6u_s_15_s_2D.png,Stimuli/testStimuliSquare/6u_s_15_s_2D.png,0,9,0.70416,,,,,,,,
,,,,,,,18,Male,B,2020-05-02_00h24.32.457,Remembering_Displays,2020.1.2,MacIntel,60,,,,,,,,,,,,,,,,0,5,5,5,1,Stimuli/trialListSquares3.xlsx,Instructions/instr_18.png,Progress: 96 of 192 trials completed
,,,,,,,18,Male,B,2020-05-02_00h24.32.457,Remembering_Displays,2020.1.2,MacIntel,60,1,1,1,1,1.725195,0,0,0,7,1,Stimuli/testStimuliCube/6u_s_16.png,Stimuli/testStimuliCube/6u_d_16.png,1,1,0.67565,,,,,,,,
,,,,,,,18,Male,B,2020-05-02_00h24.32.457,Remembering_Displays,2020.1.2,MacIntel,60,1,0,9,1,0.6171,0,1,1,16,1,Stimuli/testStimuliCube/6u_s_15_s.png,Stimuli/testStimuliCube/6u_s_15_s.png,0,9,0.922565,,,,,,,,
,,,,,,,18,Male,B,2020-05-02_00h24.32.457,Remembering_Displays,2020.1.2,MacIntel,60,1,1,9,1,0.466515,0,2,2,15,1,Stimuli/testStimuliCube/6u_s_14_s.png,Stimuli/testStimuliCube/6u_d_14_s.png,1,1,1.01976,,,,,,,,
,,,,,,,18,Male,B,2020-05-02_00h24.32.457,Remembering_Displays,2020.1.2,MacIntel,60,9,0,1,1,1.817655,0,3,3,21,1,Stimuli/testStimuliCube/6u_s_17_s.png,Stimuli/testStimuliCube/6u_d_17_s.png,1,1,0.753275,,,,,,,,
,,,,,,,18,Male,B,2020-05-02_00h24.32.457,Remembering_Displays,2020.1.2,MacIntel,60,9,1,1,1,0.447345,0,4,4,10,1,Stimuli/testStimuliCube/6u_s_18.png,Stimuli/testStimuliCube/6u_s_18.png,0,9,0.67921,,,,,,,,
,,,,,,,18,Male,B,2020-05-02_00h24.32.457,Remembering_Displays,2020.1.2,MacIntel,60,9,1,9,1,0.476365,0,5,5,18,1,Stimuli/testStimuliCube/6u_s_16_s.png,Stimuli/testStimuliCube/6u_s_16_s.png,0,9,0.57728,,,,,,,,
,,,,,,,18,Male,B,2020-05-02_00h24.32.457,Remembering_Displays,2020.1.2,MacIntel,60,9,1,9,1,0.53588,0,6,6,22,1,Stimuli/testStimuliCube/6u_s_18_s.png,Stimuli/testStimuliCube/6u_s_18_s.png,0,9,0.737725,,,,,,,,
,,,,,,,18,Male,B,2020-05-02_00h24.32.457,Remembering_Displays,2020.1.2,MacIntel,60,9,1,9,1,0.45143,0,7,7,8,1,Stimuli/testStimuliCube/6u_s_17.png,Stimuli/testStimuliCube/6u_s_17.png,0,9,0.84387,,,,,,,,
,,,,,,,18,Male,B,2020-05-02_00h24.32.457,Remembering_Displays,2020.1.2,MacIntel,60,1,1,9,1,0.439945,0,8,8,11,1,Stimuli/testStimuliCube/6u_s_18.png,Stimuli/testStimuliCube/6u_d_18.png,1,1,1.1348,,,,,,,,
,,,,,,,18,Male,B,2020-05-02_00h24.32.457,Remembering_Displays,2020.1.2,MacIntel,60,9,1,9,1,0.40277,0,9,9,12,1,Stimuli/testStimuliCube/6u_s_13_s.png,Stimuli/testStimuliCube/6u_s_13_s.png,0,9,0.68018,,,,,,,,
,,,,,,,18,Male,B,2020-05-02_00h24.32.457,Remembering_Displays,2020.1.2,MacIntel,60,1,1,9,1,0.588695,0,10,10,23,1,Stimuli/testStimuliCube/6u_s_18_s.png,Stimuli/testStimuliCube/6u_d_18_s.png,1,1,0.713135,,,,,,,,
,,,,,,,18,Male,B,2020-05-02_00h24.32.457,Remembering_Displays,2020.1.2,MacIntel,60,9,1,9,1,0.288465,0,11,11,0,1,Stimuli/testStimuliCube/6u_s_13.png,Stimuli/testStimuliCube/6u_s_13.png,0,9,0.58907,,,,,,,,
,,,,,,,18,Male,B,2020-05-02_00h24.32.457,Remembering_Displays,2020.1.2,MacIntel,60,1,1,1,1,0.52149,0,12,12,13,1,Stimuli/testStimuliCube/6u_s_13_s.png,Stimuli/testStimuliCube/6u_d_13_s.png,1,1,0.64842,,,,,,,,
,,,,,,,18,Male,B,2020-05-02_00h24.32.457,Remembering_Displays,2020.1.2,MacIntel,60,9,1,1,1,0.569275,0,13,13,4,1,Stimuli/testStimuliCube/6u_s_15.png,Stimuli/testStimuliCube/6u_s_15.png,0,9,0.92886,,,,,,,,
,,,,,,,18,Male,B,2020-05-02_00h24.32.457,Remembering_Displays,2020.1.2,MacIntel,60,1,1,9,1,0.30497,0,14,14,3,1,Stimuli/testStimuliCube/6u_s_14.png,Stimuli/testStimuliCube/6u_d_14.png,1,1,0.676085,,,,,,,,
,,,,,,,18,Male,B,2020-05-02_00h24.32.457,Remembering_Displays,2020.1.2,MacIntel,60,1,0,1,1,0.552215,0,15,15,2,1,Stimuli/testStimuliCube/6u_s_14.png,Stimuli/testStimuliCube/6u_s_14.png,0,9,1.121485,,,,,,,,
,,,,,,,18,Male,B,2020-05-02_00h24.32.457,Remembering_Displays,2020.1.2,MacIntel,60,9,1,9,1,0.502785,0,16,16,6,1,Stimuli/testStimuliCube/6u_s_16.png,Stimuli/testStimuliCube/6u_s_16.png,0,9,0.75226,,,,,,,,
,,,,,,,18,Male,B,2020-05-02_00h24.32.457,Remembering_Displays,2020.1.2,MacIntel,60,9,1,1,1,0.99121,0,17,17,14,1,Stimuli/testStimuliCube/6u_s_14_s.png,Stimuli/testStimuliCube/6u_s_14_s.png,0,9,0.99496,,,,,,,,
,,,,,,,18,Male,B,2020-05-02_00h24.32.457,Remembering_Displays,2020.1.2,MacIntel,60,1,1,9,1,0.43993,0,18,18,17,1,Stimuli/testStimuliCube/6u_s_15_s.png,Stimuli/testStimuliCube/6u_d_15_s.png,1,1,0.664195,,,,,,,,
,,,,,,,18,Male,B,2020-05-02_00h24.32.457,Remembering_Displays,2020.1.2,MacIntel,60,1,1,9,1,0.453775,0,19,19,1,1,Stimuli/testStimuliCube/6u_s_13.png,Stimuli/testStimuliCube/6u_d_13.png,1,1,0.68467,,,,,,,,
,,,,,,,18,Male,B,2020-05-02_00h24.32.457,Remembering_Displays,2020.1.2,MacIntel,60,1,1,9,1,1.1687,0,20,20,19,1,Stimuli/testStimuliCube/6u_s_16_s.png,Stimuli/testStimuliCube/6u_d_16_s.png,1,1,0.6374,,,,,,,,
,,,,,,,18,Male,B,2020-05-02_00h24.32.457,Remembering_Displays,2020.1.2,MacIntel,60,9,1,9,1,0.424815,0,21,21,20,1,Stimuli/testStimuliCube/6u_s_17_s.png,Stimuli/testStimuliCube/6u_s_17_s.png,0,9,0.788085,,,,,,,,
,,,,,,,18,Male,B,2020-05-02_00h24.32.457,Remembering_Displays,2020.1.2,MacIntel,60,1,1,1,1,0.49,0,22,22,9,1,Stimuli/testStimuliCube/6u_s_17.png,Stimuli/testStimuliCube/6u_d_17.png,1,1,0.64186,,,,,,,,
,,,,,,,18,Male,B,2020-05-02_00h24.32.457,Remembering_Displays,2020.1.2,MacIntel,60,1,1,9,1,0.43749,0,23,23,5,1,Stimuli/testStimuliCube/6u_s_15.png,Stimuli/testStimuliCube/6u_d_15.png,1,1,0.54379,,,,,,,,
,,,,,,,18,Male,B,2020-05-02_00h24.32.457,Remembering_Displays,2020.1.2,MacIntel,60,,,,,,,,,,,,,,,,0,6,6,6,1,Stimuli/trialListCubes3.xlsx,Instructions/instr_19.png,Progress: 120 of 192 trials completed
,,,,,,,18,Male,B,2020-05-02_00h24.32.457,Remembering_Displays,2020.1.2,MacIntel,60,9,1,9,1,0.786205,0,0,0,12,1,Stimuli/testStimuliSquare/6u_s_7_s_2D.png,Stimuli/testStimuliSquare/6u_s_7_s_2D.png,0,9,0.71251,,,,,,,,
,,,,,,,18,Male,B,2020-05-02_00h24.32.457,Remembering_Displays,2020.1.2,MacIntel,60,9,0,1,1,0.78707,0,1,1,15,1,Stimuli/testStimuliSquare/6u_s_8_s_2D.png,Stimuli/testStimuliSquare/6u_d_8_s_2D.png,1,1,0.663545,,,,,,,,
,,,,,,,18,Male,B,2020-05-02_00h24.32.457,Remembering_Displays,2020.1.2,MacIntel,60,9,0,1,1,0.667035,0,2,2,21,1,Stimuli/testStimuliSquare/6u_s_11_s_2D.png,Stimuli/testStimuliSquare/6u_d_11_s_2D.png,1,1,0.81928,,,,,,,,
,,,,,,,18,Male,B,2020-05-02_00h24.32.457,Remembering_Displays,2020.1.2,MacIntel,60,9,1,9,1,0.86756,0,3,3,6,1,Stimuli/testStimuliSquare/6u_s_10_2D.png,Stimuli/testStimuliSquare/6u_s_10_2D.png,0,9,0.892925,,,,,,,,
,,,,,,,18,Male,B,2020-05-02_00h24.32.457,Remembering_Displays,2020.1.2,MacIntel,60,1,1,9,1,0.58644,0,4,4,1,1,Stimuli/testStimuliSquare/6u_s_7_2D.png,Stimuli/testStimuliSquare/6u_d_7_2D.png,1,1,0.713655,,,,,,,,
,,,,,,,18,Male,B,2020-05-02_00h24.32.457,Remembering_Displays,2020.1.2,MacIntel,60,1,1,9,1,0.49984,0,5,5,9,1,Stimuli/testStimuliSquare/6u_s_11_2D.png,Stimuli/testStimuliSquare/6u_d_11_2D.png,1,1,1.07253,,,,,,,,
,,,,,,,18,Male,B,2020-05-02_00h24.32.457,Remembering_Displays,2020.1.2,MacIntel,60,9,1,9,1,0.3836,0,6,6,18,1,Stimuli/testStimuliSquare/6u_s_10_s_2D.png,Stimuli/testStimuliSquare/6u_s_10_s_2D.png,0,9,0.70465,,,,,,,,
,,,,,,,18,Male,B,2020-05-02_00h24.32.457,Remembering_Displays,2020.1.2,MacIntel,60,1,1,1,1,1.06734,0,7,7,7,1,Stimuli/testStimuliSquare/6u_s_10_2D.png,Stimuli/testStimuliSquare/6u_d_10_2D.png,1,1,0.66548,,,,,,,,
,,,,,,,18,Male,B,2020-05-02_00h24.32.457,Remembering_Displays,2020.1.2,MacIntel,60,1,1,9,1,0.67892,0,8,8,23,1,Stimuli/testStimuliSquare/6u_s_12_s_2D.png,Stimuli/testStimuliSquare/6u_d_12_s_2D.png,1,1,0.736105,,,,,,,,
,,,,,,,18,Male,B,2020-05-02_00h24.32.457,Remembering_Displays,2020.1.2,MacIntel,60,9,1,9,1,1.043025,0,9,9,20,1,Stimuli/testStimuliSquare/6u_s_11_s_2D.png,Stimuli/testStimuliSquare/6u_s_11_s_2D.png,0,9,0.71069,,,,,,,,
,,,,,,,18,Male,B,2020-05-02_00h24.32.457,Remembering_Displays,2020.1.2,MacIntel,60,1,1,9,1,0.52452,0,10,10,19,1,Stimuli/testStimuliSquare/6u_s_10_s_2D.png,Stimuli/testStimuliSquare/6u_d_10_s_2D.png,1,1,1.178465,,,,,,,,
,,,,,,,18,Male,B,2020-05-02_00h24.32.457,Remembering_Displays,2020.1.2,MacIntel,60,1,0,9,1,0.473585,0,11,11,2,1,Stimuli/testStimuliSquare/6u_s_8_2D.png,Stimuli/testStimuliSquare/6u_s_8_2D.png,0,9,0.88306,,,,,,,,
,,,,,,,18,Male,B,2020-05-02_00h24.32.457,Remembering_Displays,2020.1.2,MacIntel,60,1,1,9,1,0.60648,0,12,12,3,1,Stimuli/testStimuliSquare/6u_s_8_2D.png,Stimuli/testStimuliSquare/6u_d_8_2D.png,1,1,0.780265,,,,,,,,
,,,,,,,18,Male,B,2020-05-02_00h24.32.457,Remembering_Displays,2020.1.2,MacIntel,60,9,1,9,1,0.500555,0,13,13,10,1,Stimuli/testStimuliSquare/6u_s_12_2D.png,Stimuli/testStimuliSquare/6u_s_12_2D.png,0,9,0.7845,,,,,,,,
,,,,,,,18,Male,B,2020-05-02_00h24.32.457,Remembering_Displays,2020.1.2,MacIntel,60,1,1,1,1,0.549835,0,14,14,17,1,Stimuli/testStimuliSquare/6u_s_9_s_2D.png,Stimuli/testStimuliSquare/6u_d_9_s_2D.png,1,1,0.775485,,,,,,,,
,,,,,,,18,Male,B,2020-05-02_00h24.32.457,Remembering_Displays,2020.1.2,MacIntel,60,9,1,9,1,0.87187,0,15,15,16,1,Stimuli/testStimuliSquare/6u_s_9_s_2D.png,Stimuli/testStimuliSquare/6u_s_9_s_2D.png,0,9,0.70506,,,,,,,,
,,,,,,,18,Male,B,2020-05-02_00h24.32.457,Remembering_Displays,2020.1.2,MacIntel,60,9,1,1,1,0.5191,0,16,16,14,1,Stimuli/testStimuliSquare/6u_s_8_s_2D.png,Stimuli/testStimuliSquare/6u_s_8_s_2D.png,0,9,0.6263,,,,,,,,
,,,,,,,18,Male,B,2020-05-02_00h24.32.457,Remembering_Displays,2020.1.2,MacIntel,60,9,1,9,1,0.448535,0,17,17,4,1,Stimuli/testStimuliSquare/6u_s_9_2D.png,Stimuli/testStimuliSquare/6u_s_9_2D.png,0,9,0.64964,,,,,,,,
,,,,,,,18,Male,B,2020-05-02_00h24.32.457,Remembering_Displays,2020.1.2,MacIntel,60,1,1,9,1,0.53978,0,18,18,13,1,Stimuli/testStimuliSquare/6u_s_7_s_2D.png,Stimuli/testStimuliSquare/6u_d_7_s_2D.png,1,1,0.604115,,,,,,,,
,,,,,,,18,Male,B,2020-05-02_00h24.32.457,Remembering_Displays,2020.1.2,MacIntel,60,9,1,9,1,0.535275,0,19,19,22,1,Stimuli/testStimuliSquare/6u_s_12_s_2D.png,Stimuli/testStimuliSquare/6u_s_12_s_2D.png,0,9,0.606785,,,,,,,,
,,,,,,,18,Male,B,2020-05-02_00h24.32.457,Remembering_Displays,2020.1.2,MacIntel,60,1,1,1,1,0.74822,0,20,20,11,1,Stimuli/testStimuliSquare/6u_s_12_2D.png,Stimuli/testStimuliSquare/6u_d_12_2D.png,1,1,0.75073,,,,,,,,
,,,,,,,18,Male,B,2020-05-02_00h24.32.457,Remembering_Displays,2020.1.2,MacIntel,60,9,1,9,1,0.48534,0,21,21,8,1,Stimuli/testStimuliSquare/6u_s_11_2D.png,Stimuli/testStimuliSquare/6u_s_11_2D.png,0,9,1.23793,,,,,,,,
,,,,,,,18,Male,B,2020-05-02_00h24.32.457,Remembering_Displays,2020.1.2,MacIntel,60,9,1,1,1,0.43385,0,22,22,0,1,Stimuli/testStimuliSquare/6u_s_7_2D.png,Stimuli/testStimuliSquare/6u_s_7_2D.png,0,9,1.045975,,,,,,,,
,,,,,,,18,Male,B,2020-05-02_00h24.32.457,Remembering_Displays,2020.1.2,MacIntel,60,1,1,9,1,0.37092,0,23,23,5,1,Stimuli/testStimuliSquare/6u_s_9_2D.png,Stimuli/testStimuliSquare/6u_d_9_2D.png,1,1,0.63373,,,,,,,,
,,,,,,,18,Male,B,2020-05-02_00h24.32.457,Remembering_Displays,2020.1.2,MacIntel,60,,,,,,,,,,,,,,,,0,7,7,7,1,Stimuli/trialListSquares2.xlsx,Instructions/instr_18.png,Progress: 144 of 192 trials completed
,,,,,,,18,Male,B,2020-05-02_00h24.32.457,Remembering_Displays,2020.1.2,MacIntel,60,1,1,9,1,0.552865,0,0,0,1,1,Stimuli/testStimuliCube/6u_s_19.png,Stimuli/testStimuliCube/6u_d_19.png,1,1,0.72736,,,,,,,,
,,,,,,,18,Male,B,2020-05-02_00h24.32.457,Remembering_Displays,2020.1.2,MacIntel,60,9,1,9,1,0.516345,0,1,1,16,1,Stimuli/testStimuliCube/6u_s_21_s.png,Stimuli/testStimuliCube/6u_s_21_s.png,0,9,0.46034,,,,,,,,
,,,,,,,18,Male,B,2020-05-02_00h24.32.457,Remembering_Displays,2020.1.2,MacIntel,60,1,1,1,1,0.849975,0,2,2,13,1,Stimuli/testStimuliCube/6u_s_19_s.png,Stimuli/testStimuliCube/6u_d_19_s.png,1,1,0.59441,,,,,,,,
,,,,,,,18,Male,B,2020-05-02_00h24.32.457,Remembering_Displays,2020.1.2,MacIntel,60,9,1,1,1,0.483765,0,3,3,12,1,Stimuli/testStimuliCube/6u_s_19_s.png,Stimuli/testStimuliCube/6u_s_19_s.png,0,9,0.98164,,,,,,,,
,,,,,,,18,Male,B,2020-05-02_00h24.32.457,Remembering_Displays,2020.1.2,MacIntel,60,9,1,9,1,1.46687,0,4,4,14,1,Stimuli/testStimuliCube/6u_s_20_s.png,Stimuli/testStimuliCube/6u_s_20_s.png,0,9,0.625445,,,,,,,,
,,,,,,,18,Male,B,2020-05-02_00h24.32.457,Remembering_Displays,2020.1.2,MacIntel,60,9,1,1,1,0.366905,0,5,5,0,1,Stimuli/testStimuliCube/6u_s_19.png,Stimuli/testStimuliCube/6u_s_19.png,0,9,0.54577,,,,,,,,
,,,,,,,18,Male,B,2020-05-02_00h24.32.457,Remembering_Displays,2020.1.2,MacIntel,60,9,1,1,1,0.63315,0,6,6,22,1,Stimuli/testStimuliCube/6u_s_24_s.png,Stimuli/testStimuliCube/6u_s_24_s.png,0,9,0.674125,,,,,,,,
,,,,,,,18,Male,B,2020-05-02_00h24.32.457,Remembering_Displays,2020.1.2,MacIntel,60,1,1,1,1,1.6002,0,7,7,5,1,Stimuli/testStimuliCube/6u_s_21.png,Stimuli/testStimuliCube/6u_d_21.png,1,1,0.734905,,,,,,,,
,,,,,,,18,Male,B,2020-05-02_00h24.32.457,Remembering_Displays,2020.1.2,MacIntel,60,9,1,9,1,0.561815,0,8,8,8,1,Stimuli/testStimuliCube/6u_s_23.png,Stimuli/testStimuliCube/6u_s_23.png,0,9,0.63593,,,,,,,,
,,,,,,,18,Male,B,2020-05-02_00h24.32.457,Remembering_Displays,2020.1.2,MacIntel,60,9,1,9,1,0.46638,0,9,9,2,1,Stimuli/testStimuliCube/6u_s_20.png,Stimuli/testStimuliCube/6u_s_20.png,0,9,0.822135,,,,,,,,
,,,,,,,18,Male,B,2020-05-02_00h24.32.457,Remembering_Displays,2020.1.2,MacIntel,60,1,1,9,1,0.41349,0,10,10,15,1,Stimuli/testStimuliCube/6u_s_20_s.png,Stimuli/testStimuliCube/6u_d_20_s.png,1,1,0.54387,,,,,,,,
,,,,,,,18,Male,B,2020-05-02_00h24.32.457,Remembering_Displays,2020.1.2,MacIntel,60,1,1,1,1,0.503175,0,11,11,21,1,Stimuli/testStimuliCube/6u_s_23_s.png,Stimuli/testStimuliCube/6u_d_23_s.png,1,1,0.701505,,,,,,,,
,,,,,,,18,Male,B,2020-05-02_00h24.32.457,Remembering_Displays,2020.1.2,MacIntel,60,9,1,1,1,0.42733,0,12,12,6,1,Stimuli/testStimuliCube/6u_s_22.png,Stimuli/testStimuliCube/6u_s_22.png,0,9,0.6353,,,,,,,,
,,,,,,,18,Male,B,2020-05-02_00h24.32.457,Remembering_Displays,2020.1.2,MacIntel,60,1,1,1,1,0.435415,0,13,13,3,1,Stimuli/testStimuliCube/6u_s_20.png,Stimuli/testStimuliCube/6u_d_20.png,1,1,1.060495,,,,,,,,
,,,,,,,18,Male,B,2020-05-02_00h24.32.457,Remembering_Displays,2020.1.2,MacIntel,60,9,1,9,1,0.82151,0,14,14,4,1,Stimuli/testStimuliCube/6u_s_21.png,Stimuli/testStimuliCube/6u_s_21.png,0,9,0.70405,,,,,,,,
,,,,,,,18,Male,B,2020-05-02_00h24.32.457,Remembering_Displays,2020.1.2,MacIntel,60,1,1,1,1,0.59965,0,15,15,9,1,Stimuli/testStimuliCube/6u_s_23.png,Stimuli/testStimuliCube/6u_d_23.png,1,1,0.74425,,,,,,,,
,,,,,,,18,Male,B,2020-05-02_00h24.32.457,Remembering_Displays,2020.1.2,MacIntel,60,1,0,9,1,0.667665,0,16,16,20,1,Stimuli/testStimuliCube/6u_s_23_s.png,Stimuli/testStimuliCube/6u_s_23_s.png,0,9,1.193455,,,,,,,,
,,,,,,,18,Male,B,2020-05-02_00h24.32.457,Remembering_Displays,2020.1.2,MacIntel,60,1,1,9,1,0.357795,0,17,17,19,1,Stimuli/testStimuliCube/6u_s_22_s.png,Stimuli/testStimuliCube/6u_d_22_s.png,1,1,1.085025,,,,,,,,
,,,,,,,18,Male,B,2020-05-02_00h24.32.457,Remembering_Displays,2020.1.2,MacIntel,60,9,1,1,1,0.519105,0,18,18,18,1,Stimuli/testStimuliCube/6u_s_22_s.png,Stimuli/testStimuliCube/6u_s_22_s.png,0,9,1.06438,,,,,,,,
,,,,,,,18,Male,B,2020-05-02_00h24.32.457,Remembering_Displays,2020.1.2,MacIntel,60,1,1,9,1,1.01846,0,19,19,23,1,Stimuli/testStimuliCube/6u_s_24_s.png,Stimuli/testStimuliCube/6u_d_24_s.png,1,1,0.612825,,,,,,,,
,,,,,,,18,Male,B,2020-05-02_00h24.32.457,Remembering_Displays,2020.1.2,MacIntel,60,1,1,1,1,0.90278,0,20,20,11,1,Stimuli/testStimuliCube/6u_s_24.png,Stimuli/testStimuliCube/6u_d_24.png,1,1,0.592865,,,,,,,,
,,,,,,,18,Male,B,2020-05-02_00h24.32.457,Remembering_Displays,2020.1.2,MacIntel,60,1,1,1,1,0.75619,0,21,21,17,1,Stimuli/testStimuliCube/6u_s_21_s.png,Stimuli/testStimuliCube/6u_d_21_s.png,1,1,0.76289,,,,,,,,
,,,,,,,18,Male,B,2020-05-02_00h24.32.457,Remembering_Displays,2020.1.2,MacIntel,60,1,1,1,1,0.766275,0,22,22,7,1,Stimuli/testStimuliCube/6u_s_22.png,Stimuli/testStimuliCube/6u_d_22.png,1,1,0.583515,,,,,,,,
,,,,,,,18,Male,B,2020-05-02_00h24.32.457,Remembering_Displays,2020.1.2,MacIntel,60,9,1,1,1,1.51743,0,23,23,10,1,Stimuli/testStimuliCube/6u_s_24.png,Stimuli/testStimuliCube/6u_s_24.png,0,9,0.679915,,,,,,,,
,,,,,,,18,Male,B,2020-05-02_00h24.32.457,Remembering_Displays,2020.1.2,MacIntel,60,,,,,,,,,,,,,,,,0,8,8,8,1,Stimuli/trialListCubes4.xlsx,Instructions/instr_19.png,Progress: 168 of 192 trials completed
,,,,,,,18,Male,B,2020-05-02_00h24.32.457,Remembering_Displays,2020.1.2,MacIntel,60,1,1,9,1,0.808945,0,0,0,11,1,Stimuli/testStimuliSquare/6u_s_6_2D.png,Stimuli/testStimuliSquare/6u_d_6_2D.png,1,1,0.678695,,,,,,,,
,,,,,,,18,Male,B,2020-05-02_00h24.32.457,Remembering_Displays,2020.1.2,MacIntel,60,1,1,9,1,1.17767,0,1,1,23,1,Stimuli/testStimuliSquare/6u_s_6_s_2D.png,Stimuli/testStimuliSquare/6u_d_6_s_2D.png,1,1,0.596425,,,,,,,,
,,,,,,,18,Male,B,2020-05-02_00h24.32.457,Remembering_Displays,2020.1.2,MacIntel,60,9,1,1,1,0.634035,0,2,2,18,1,Stimuli/testStimuliSquare/6u_s_4_s_2D.png,Stimuli/testStimuliSquare/6u_s_4_s_2D.png,0,9,0.813995,,,,,,,,
,,,,,,,18,Male,B,2020-05-02_00h24.32.457,Remembering_Displays,2020.1.2,MacIntel,60,1,1,9,1,0.566915,0,3,3,13,1,Stimuli/testStimuliSquare/6u_s_1_s_2D.png,Stimuli/testStimuliSquare/6u_d_1_s_2D.png,1,1,1.344765,,,,,,,,
,,,,,,,18,Male,B,2020-05-02_00h24.32.457,Remembering_Displays,2020.1.2,MacIntel,60,1,1,9,1,0.417825,0,4,4,17,1,Stimuli/testStimuliSquare/6u_s_3_s_2D.png,Stimuli/testStimuliSquare/6u_d_3_s_2D.png,1,1,1.23534,,,,,,,,
,,,,,,,18,Male,B,2020-05-02_00h24.32.457,Remembering_Displays,2020.1.2,MacIntel,60,9,1,1,1,0.77327,0,5,5,6,1,Stimuli/testStimuliSquare/6u_s_4_2D.png,Stimuli/testStimuliSquare/6u_s_4_2D.png,0,9,0.68559,,,,,,,,
,,,,,,,18,Male,B,2020-05-02_00h24.32.457,Remembering_Displays,2020.1.2,MacIntel,60,1,1,9,1,0.66411,0,6,6,15,1,Stimuli/testStimuliSquare/6u_s_2_s_2D.png,Stimuli/testStimuliSquare/6u_d_2_s_2D.png,1,1,0.726155,,,,,,,,
,,,,,,,18,Male,B,2020-05-02_00h24.32.457,Remembering_Displays,2020.1.2,MacIntel,60,1,1,1,1,1.184545,0,7,7,7,1,Stimuli/testStimuliSquare/6u_s_4_2D.png,Stimuli/testStimuliSquare/6u_d_4_2D.png,1,1,0.64132,,,,,,,,
,,,,,,,18,Male,B,2020-05-02_00h24.32.457,Remembering_Displays,2020.1.2,MacIntel,60,9,1,9,1,0.656475,0,8,8,14,1,Stimuli/testStimuliSquare/6u_s_2_s_2D.png,Stimuli/testStimuliSquare/6u_s_2_s_2D.png,0,9,0.68789,,,,,,,,
,,,,,,,18,Male,B,2020-05-02_00h24.32.457,Remembering_Displays,2020.1.2,MacIntel,60,9,1,9,1,0.439045,0,9,9,4,1,Stimuli/testStimuliSquare/6u_s_3_2D.png,Stimuli/testStimuliSquare/6u_s_3_2D.png,0,9,0.904265,,,,,,,,
,,,,,,,18,Male,B,2020-05-02_00h24.32.457,Remembering_Displays,2020.1.2,MacIntel,60,9,1,1,1,0.420165,0,10,10,16,1,Stimuli/testStimuliSquare/6u_s_3_s_2D.png,Stimuli/testStimuliSquare/6u_s_3_s_2D.png,0,9,0.804885,,,,,,,,
,,,,,,,18,Male,B,2020-05-02_00h24.32.457,Remembering_Displays,2020.1.2,MacIntel,60,1,1,9,1,0.6055,0,11,11,1,1,Stimuli/testStimuliSquare/6u_s_1_2D.png,Stimuli/testStimuliSquare/6u_d_1_2D.png,1,1,0.72126,,,,,,,,
,,,,,,,18,Male,B,2020-05-02_00h24.32.457,Remembering_Displays,2020.1.2,MacIntel,60,1,1,9,1,0.46144,0,12,12,5,1,Stimuli/testStimuliSquare/6u_s_3_2D.png,Stimuli/testStimuliSquare/6u_d_3_2D.png,1,1,0.671205,,,,,,,,
,,,,,,,18,Male,B,2020-05-02_00h24.32.457,Remembering_Displays,2020.1.2,MacIntel,60,9,1,9,1,0.422675,0,13,13,20,1,Stimuli/testStimuliSquare/6u_s_5_s_2D.png,Stimuli/testStimuliSquare/6u_s_5_s_2D.png,0,9,0.656695,,,,,,,,
,,,,,,,18,Male,B,2020-05-02_00h24.32.457,Remembering_Displays,2020.1.2,MacIntel,60,9,1,1,1,0.500595,0,14,14,22,1,Stimuli/testStimuliSquare/6u_s_6_s_2D.png,Stimuli/testStimuliSquare/6u_s_6_s_2D.png,0,9,0.78015,,,,,,,,
,,,,,,,18,Male,B,2020-05-02_00h24.32.457,Remembering_Displays,2020.1.2,MacIntel,60,1,1,9,1,0.773945,0,15,15,21,1,Stimuli/testStimuliSquare/6u_s_5_s_2D.png,Stimuli/testStimuliSquare/6u_d_5_s_2D.png,1,1,0.84704,,,,,,,,
,,,,,,,18,Male,B,2020-05-02_00h24.32.457,Remembering_Displays,2020.1.2,MacIntel,60,1,1,9,1,0.419585,0,16,16,19,1,Stimuli/testStimuliSquare/6u_s_4_s_2D.png,Stimuli/testStimuliSquare/6u_d_4_s_2D.png,1,1,0.61311,,,,,,,,
,,,,,,,18,Male,B,2020-05-02_00h24.32.457,Remembering_Displays,2020.1.2,MacIntel,60,1,1,9,1,0.753485,0,17,17,3,1,Stimuli/testStimuliSquare/6u_s_2_2D.png,Stimuli/testStimuliSquare/6u_d_2_2D.png,1,1,0.645945,,,,,,,,
,,,,,,,18,Male,B,2020-05-02_00h24.32.457,Remembering_Displays,2020.1.2,MacIntel,60,9,1,1,1,0.51994,0,18,18,8,1,Stimuli/testStimuliSquare/6u_s_5_2D.png,Stimuli/testStimuliSquare/6u_s_5_2D.png,0,9,0.719175,,,,,,,,
,,,,,,,18,Male,B,2020-05-02_00h24.32.457,Remembering_Displays,2020.1.2,MacIntel,60,9,1,9,1,0.46949,0,19,19,12,1,Stimuli/testStimuliSquare/6u_s_1_s_2D.png,Stimuli/testStimuliSquare/6u_s_1_s_2D.png,0,9,0.50973,,,,,,,,
,,,,,,,18,Male,B,2020-05-02_00h24.32.457,Remembering_Displays,2020.1.2,MacIntel,60,9,1,1,1,0.500305,0,20,20,2,1,Stimuli/testStimuliSquare/6u_s_2_2D.png,Stimuli/testStimuliSquare/6u_s_2_2D.png,0,9,0.65552,,,,,,,,
,,,,,,,18,Male,B,2020-05-02_00h24.32.457,Remembering_Displays,2020.1.2,MacIntel,60,9,1,1,1,0.604325,0,21,21,10,1,Stimuli/testStimuliSquare/6u_s_6_2D.png,Stimuli/testStimuliSquare/6u_s_6_2D.png,0,9,0.94317,,,,,,,,
,,,,,,,18,Male,B,2020-05-02_00h24.32.457,Remembering_Displays,2020.1.2,MacIntel,60,,0,9,1,1.033475,0,22,22,0,1,Stimuli/testStimuliSquare/6u_s_1_2D.png,Stimuli/testStimuliSquare/6u_s_1_2D.png,0,9,,,,,,,,,
,,,,,,,18,Male,B,2020-05-02_00h24.32.457,Remembering_Displays,2020.1.2,MacIntel,60,1,1,9,1,1.085305,0,23,23,9,1,Stimuli/testStimuliSquare/6u_s_5_2D.png,Stimuli/testStimuliSquare/6u_d_5_2D.png,1,1,0.56726,,,,,,,,