instr_Loop.thisRepN,instr_Loop.thisTrialN,instr_Loop.thisN,instr_Loop.thisIndex,instr_Loop.ran,instructionImage,time,age,sex (female/male),order,date,expName,psychopyVersion,OS,frameRate,struc_judge_respond.keys,struc_judge_respond.corr,struc_judge_respond.rt,dual_respond.keys,dual_respond.corr,dual_respond.rt,trials.thisRepN,trials.thisTrialN,trials.thisN,trials.thisIndex,trials.ran,stim1,stim2,isAnyChange,corrAns,selectBlock.thisRepN,selectBlock.thisTrialN,selectBlock.thisN,selectBlock.thisIndex,selectBlock.ran,condsFile,condsImage,remaining,connected,dimensionality
0,0,0,0,1,Instructions/instr_1.png,5,19,female,A,2020-05-03_16h17.13.236,Remembering_Displays,2020.1.2,MacIntel,60,,,,,,,,,,,,,,,,,,,,,,,,,
0,1,1,1,1,Instructions/instr_2.png,3,19,female,A,2020-05-03_16h17.13.236,Remembering_Displays,2020.1.2,MacIntel,60,,,,,,,,,,,,,,,,,,,,,,,,,
0,2,2,2,1,Instructions/instr_3.png,5,19,female,A,2020-05-03_16h17.13.236,Remembering_Displays,2020.1.2,MacIntel,60,,,,,,,,,,,,,,,,,,,,,,,,,
0,3,3,3,1,Instructions/instr_4.png,1,19,female,A,2020-05-03_16h17.13.236,Remembering_Displays,2020.1.2,MacIntel,60,,,,,,,,,,,,,,,,,,,,,,,,,
0,4,4,4,1,Instructions/instr_5.png,1,19,female,A,2020-05-03_16h17.13.236,Remembering_Displays,2020.1.2,MacIntel,60,,,,,,,,,,,,,,,,,,,,,,,,,
0,5,5,5,1,Instructions/instr_6.png,1,19,female,A,2020-05-03_16h17.13.236,Remembering_Displays,2020.1.2,MacIntel,60,,,,,,,,,,,,,,,,,,,,,,,,,
0,6,6,6,1,Instructions/instr_7.png,1,19,female,A,2020-05-03_16h17.13.236,Remembering_Displays,2020.1.2,MacIntel,60,,,,,,,,,,,,,,,,,,,,,,,,,
0,7,7,7,1,Instructions/instr_8.png,3,19,female,A,2020-05-03_16h17.13.236,Remembering_Displays,2020.1.2,MacIntel,60,,,,,,,,,,,,,,,,,,,,,,,,,
0,8,8,8,1,Instructions/instr_9.png,3,19,female,A,2020-05-03_16h17.13.236,Remembering_Displays,2020.1.2,MacIntel,60,,,,,,,,,,,,,,,,,,,,,,,,,
0,9,9,9,1,Instructions/instr_10.png,3,19,female,A,2020-05-03_16h17.13.236,Remembering_Displays,2020.1.2,MacIntel,60,,,,,,,,,,,,,,,,,,,,,,,,,
0,10,10,10,1,Instructions/instr_11.png,3,19,female,A,2020-05-03_16h17.13.236,Remembering_Displays,2020.1.2,MacIntel,60,,,,,,,,,,,,,,,,,,,,,,,,,
0,11,11,11,1,Instructions/instr_12.png,3,19,female,A,2020-05-03_16h17.13.236,Remembering_Displays,2020.1.2,MacIntel,60,,,,,,,,,,,,,,,,,,,,,,,,,
0,12,12,12,1,Instructions/instr_13.png,3,19,female,A,2020-05-03_16h17.13.236,Remembering_Displays,2020.1.2,MacIntel,60,,,,,,,,,,,,,,,,,,,,,,,,,
0,13,13,13,1,Instructions/instr_14.png,3,19,female,A,2020-05-03_16h17.13.236,Remembering_Displays,2020.1.2,MacIntel,60,,,,,,,,,,,,,,,,,,,,,,,,,
0,14,14,14,1,Instructions/instr_15.png,3,19,female,A,2020-05-03_16h17.13.236,Remembering_Displays,2020.1.2,MacIntel,60,,,,,,,,,,,,,,,,,,,,,,,,,
0,15,15,15,1,Instructions/instr_16.png,5,19,female,A,2020-05-03_16h17.13.236,Remembering_Displays,2020.1.2,MacIntel,60,,,,,,,,,,,,,,,,,,,,,,,,,
,,,,,,,19,female,A,2020-05-03_16h17.13.236,Remembering_Displays,2020.1.2,MacIntel,60,9,1,1.22743,9,1,19.81939,0,0,0,7,1,Stimuli/practiceStimuliSquare/practice4_s.png,Stimuli/practiceStimuliSquare/practice4_s.png,0,9,,,,,,,,,,
,,,,,,,19,female,A,2020-05-03_16h17.13.236,Remembering_Displays,2020.1.2,MacIntel,60,1,1,1.148245,9,0,3.811155,0,1,1,3,1,Stimuli/practiceStimuliSquare/practice4_s.png,Stimuli/practiceStimuliSquare/practice4_d.png,1,1,,,,,,,,,,
,,,,,,,19,female,A,2020-05-03_16h17.13.236,Remembering_Displays,2020.1.2,MacIntel,60,,0,,9,1,1.80804,0,2,2,4,1,Stimuli/practiceStimuliSquare/practice1_s.png,Stimuli/practiceStimuliSquare/practice1_d.png,1,1,,,,,,,,,,
,,,,,,,19,female,A,2020-05-03_16h17.13.236,Remembering_Displays,2020.1.2,MacIntel,60,1,1,0.63273,9,1,1.56147,0,3,3,6,1,Stimuli/practiceStimuliSquare/practice3_s.png,Stimuli/practiceStimuliSquare/practice3_d.png,1,1,,,,,,,,,,
,,,,,,,19,female,A,2020-05-03_16h17.13.236,Remembering_Displays,2020.1.2,MacIntel,60,9,1,0.831805,9,1,0.986895,0,4,4,5,1,Stimuli/practiceStimuliSquare/practice2_s.png,Stimuli/practiceStimuliSquare/practice2_s.png,0,9,,,,,,,,,,
,,,,,,,19,female,A,2020-05-03_16h17.13.236,Remembering_Displays,2020.1.2,MacIntel,60,9,1,0.828105,1,1,0.823525,0,5,5,0,1,Stimuli/practiceStimuliSquare/practice1_s.png,Stimuli/practiceStimuliSquare/practice1_s.png,0,9,,,,,,,,,,
,,,,,,,19,female,A,2020-05-03_16h17.13.236,Remembering_Displays,2020.1.2,MacIntel,60,1,1,0.93526,9,1,1.26265,0,6,6,1,1,Stimuli/practiceStimuliSquare/practice2_s.png,Stimuli/practiceStimuliSquare/practice2_d.png,1,1,,,,,,,,,,
,,,,,,,19,female,A,2020-05-03_16h17.13.236,Remembering_Displays,2020.1.2,MacIntel,60,9,1,0.81034,9,1,1.01937,0,7,7,2,1,Stimuli/practiceStimuliSquare/practice3_s.png,Stimuli/practiceStimuliSquare/practice3_s.png,0,9,,,,,,,,,,
,,,,,,,19,female,A,2020-05-03_16h17.13.236,Remembering_Displays,2020.1.2,MacIntel,60,,,,,,,,,,,,,,,,0,0,0,0,1,Stimuli/practiceListSquares.xlsx,Instructions/instr_practice_A.png,Practice trials completed,,
,,,,,,,19,female,A,2020-05-03_16h17.13.236,Remembering_Displays,2020.1.2,MacIntel,60,1,1,1.34152,1,1,0.961995,0,0,0,13,1,Stimuli/testStimuliSquare/6u_s_1_s_2D.png,Stimuli/testStimuliSquare/6u_d_1_s_2D.png,1,1,,,,,,,,,s,2D
,,,,,,,19,female,A,2020-05-03_16h17.13.236,Remembering_Displays,2020.1.2,MacIntel,60,9,0,0.92765,1,1,1.481625,0,1,1,21,1,Stimuli/testStimuliSquare/6u_s_5_s_2D.png,Stimuli/testStimuliSquare/6u_d_5_s_2D.png,1,1,,,,,,,,,s,2D
,,,,,,,19,female,A,2020-05-03_16h17.13.236,Remembering_Displays,2020.1.2,MacIntel,60,9,1,0.781295,1,1,1.912085,0,2,2,12,1,Stimuli/testStimuliSquare/6u_s_1_s_2D.png,Stimuli/testStimuliSquare/6u_s_1_s_2D.png,0,9,,,,,,,,,s,2D
,,,,,,,19,female,A,2020-05-03_16h17.13.236,Remembering_Displays,2020.1.2,MacIntel,60,9,0,0.42378,1,1,0.893555,0,3,3,15,1,Stimuli/testStimuliSquare/6u_s_2_s_2D.png,Stimuli/testStimuliSquare/6u_d_2_s_2D.png,1,1,,,,,,,,,s,2D
,,,,,,,19,female,A,2020-05-03_16h17.13.236,Remembering_Displays,2020.1.2,MacIntel,60,1,1,0.713045,1,1,1.42167,0,4,4,3,1,Stimuli/testStimuliSquare/6u_s_2_2D.png,Stimuli/testStimuliSquare/6u_d_2_2D.png,1,1,,,,,,,,,c,2D
,,,,,,,19,female,A,2020-05-03_16h17.13.236,Remembering_Displays,2020.1.2,MacIntel,60,,0,,1,1,1.38763,0,5,5,10,1,Stimuli/testStimuliSquare/6u_s_6_2D.png,Stimuli/testStimuliSquare/6u_s_6_2D.png,0,9,,,,,,,,,c,2D
,,,,,,,19,female,A,2020-05-03_16h17.13.236,Remembering_Displays,2020.1.2,MacIntel,60,9,1,0.657225,1,1,0.851105,0,6,6,4,1,Stimuli/testStimuliSquare/6u_s_3_2D.png,Stimuli/testStimuliSquare/6u_s_3_2D.png,0,9,,,,,,,,,c,2D
,,,,,,,19,female,A,2020-05-03_16h17.13.236,Remembering_Displays,2020.1.2,MacIntel,60,9,1,0.3851,1,0,1.37991,0,7,7,14,1,Stimuli/testStimuliSquare/6u_s_2_s_2D.png,Stimuli/testStimuliSquare/6u_s_2_s_2D.png,0,9,,,,,,,,,s,2D
,,,,,,,19,female,A,2020-05-03_16h17.13.236,Remembering_Displays,2020.1.2,MacIntel,60,9,1,0.396635,1,1,0.90079,0,8,8,0,1,Stimuli/testStimuliSquare/6u_s_1_2D.png,Stimuli/testStimuliSquare/6u_s_1_2D.png,0,9,,,,,,,,,c,2D
,,,,,,,19,female,A,2020-05-03_16h17.13.236,Remembering_Displays,2020.1.2,MacIntel,60,9,1,0.48825,1,1,0.96264,0,9,9,18,1,Stimuli/testStimuliSquare/6u_s_4_s_2D.png,Stimuli/testStimuliSquare/6u_s_4_s_2D.png,0,9,,,,,,,,,s,2D
,,,,,,,19,female,A,2020-05-03_16h17.13.236,Remembering_Displays,2020.1.2,MacIntel,60,9,0,0.40063,9,1,1.049975,0,10,10,23,1,Stimuli/testStimuliSquare/6u_s_6_s_2D.png,Stimuli/testStimuliSquare/6u_d_6_s_2D.png,1,1,,,,,,,,,s,2D
,,,,,,,19,female,A,2020-05-03_16h17.13.236,Remembering_Displays,2020.1.2,MacIntel,60,1,1,0.603945,1,1,0.907385,0,11,11,7,1,Stimuli/testStimuliSquare/6u_s_4_2D.png,Stimuli/testStimuliSquare/6u_d_4_2D.png,1,1,,,,,,,,,c,2D
,,,,,,,19,female,A,2020-05-03_16h17.13.236,Remembering_Displays,2020.1.2,MacIntel,60,9,1,0.403615,1,1,0.64832,0,12,12,6,1,Stimuli/testStimuliSquare/6u_s_4_2D.png,Stimuli/testStimuliSquare/6u_s_4_2D.png,0,9,,,,,,,,,c,2D
,,,,,,,19,female,A,2020-05-03_16h17.13.236,Remembering_Displays,2020.1.2,MacIntel,60,9,1,0.575365,9,1,1.30335,0,13,13,16,1,Stimuli/testStimuliSquare/6u_s_3_s_2D.png,Stimuli/testStimuliSquare/6u_s_3_s_2D.png,0,9,,,,,,,,,s,2D
,,,,,,,19,female,A,2020-05-03_16h17.13.236,Remembering_Displays,2020.1.2,MacIntel,60,1,1,0.577695,9,1,0.88638,0,14,14,17,1,Stimuli/testStimuliSquare/6u_s_3_s_2D.png,Stimuli/testStimuliSquare/6u_d_3_s_2D.png,1,1,,,,,,,,,s,2D
,,,,,,,19,female,A,2020-05-03_16h17.13.236,Remembering_Displays,2020.1.2,MacIntel,60,1,1,0.520615,9,1,0.867405,0,15,15,1,1,Stimuli/testStimuliSquare/6u_s_1_2D.png,Stimuli/testStimuliSquare/6u_d_1_2D.png,1,1,,,,,,,,,c,2D
,,,,,,,19,female,A,2020-05-03_16h17.13.236,Remembering_Displays,2020.1.2,MacIntel,60,9,1,0.662545,9,1,0.610515,0,16,16,2,1,Stimuli/testStimuliSquare/6u_s_2_2D.png,Stimuli/testStimuliSquare/6u_s_2_2D.png,0,9,,,,,,,,,c,2D
,,,,,,,19,female,A,2020-05-03_16h17.13.236,Remembering_Displays,2020.1.2,MacIntel,60,9,1,0.551715,9,1,0.65291,0,17,17,8,1,Stimuli/testStimuliSquare/6u_s_5_2D.png,Stimuli/testStimuliSquare/6u_s_5_2D.png,0,9,,,,,,,,,c,2D
,,,,,,,19,female,A,2020-05-03_16h17.13.236,Remembering_Displays,2020.1.2,MacIntel,60,1,1,0.8847,1,1,0.87357,0,18,18,9,1,Stimuli/testStimuliSquare/6u_s_5_2D.png,Stimuli/testStimuliSquare/6u_d_5_2D.png,1,1,,,,,,,,,c,2D
,,,,,,,19,female,A,2020-05-03_16h17.13.236,Remembering_Displays,2020.1.2,MacIntel,60,1,1,0.63313,1,1,0.888445,0,19,19,5,1,Stimuli/testStimuliSquare/6u_s_3_2D.png,Stimuli/testStimuliSquare/6u_d_3_2D.png,1,1,,,,,,,,,c,2D
,,,,,,,19,female,A,2020-05-03_16h17.13.236,Remembering_Displays,2020.1.2,MacIntel,60,9,1,0.751495,1,1,0.86456,0,20,20,22,1,Stimuli/testStimuliSquare/6u_s_6_s_2D.png,Stimuli/testStimuliSquare/6u_s_6_s_2D.png,0,9,,,,,,,,,s,2D
,,,,,,,19,female,A,2020-05-03_16h17.13.236,Remembering_Displays,2020.1.2,MacIntel,60,1,1,0.66817,9,1,0.96447,0,21,21,19,1,Stimuli/testStimuliSquare/6u_s_4_s_2D.png,Stimuli/testStimuliSquare/6u_d_4_s_2D.png,1,1,,,,,,,,,s,2D
,,,,,,,19,female,A,2020-05-03_16h17.13.236,Remembering_Displays,2020.1.2,MacIntel,60,1,1,0.575045,9,1,0.62325,0,22,22,11,1,Stimuli/testStimuliSquare/6u_s_6_2D.png,Stimuli/testStimuliSquare/6u_d_6_2D.png,1,1,,,,,,,,,c,2D
,,,,,,,19,female,A,2020-05-03_16h17.13.236,Remembering_Displays,2020.1.2,MacIntel,60,9,1,1.010905,9,1,1.26297,0,23,23,20,1,Stimuli/testStimuliSquare/6u_s_5_s_2D.png,Stimuli/testStimuliSquare/6u_s_5_s_2D.png,0,9,,,,,,,,,s,2D
,,,,,,,19,female,A,2020-05-03_16h17.13.236,Remembering_Displays,2020.1.2,MacIntel,60,,,,,,,,,,,,,,,,0,1,1,1,1,Stimuli/trialListSquares1.xlsx,Instructions/instr_18.png,Progress: 24 of 192 trials completed,,
,,,,,,,19,female,A,2020-05-03_16h17.13.236,Remembering_Displays,2020.1.2,MacIntel,60,9,1,0.71866,1,1,0.889885,0,0,0,7,1,Stimuli/practiceStimuliCube/practice4_s.png,Stimuli/practiceStimuliCube/practice4_s.png,0,9,,,,,,,,,,
,,,,,,,19,female,A,2020-05-03_16h17.13.236,Remembering_Displays,2020.1.2,MacIntel,60,,0,,9,1,0.66286,0,1,1,6,1,Stimuli/practiceStimuliCube/practice3_s.png,Stimuli/practiceStimuliCube/practice3_d.png,1,1,,,,,,,,,,
,,,,,,,19,female,A,2020-05-03_16h17.13.236,Remembering_Displays,2020.1.2,MacIntel,60,9,1,0.63035,9,1,0.670225,0,2,2,0,1,Stimuli/practiceStimuliCube/practice1_s.png,Stimuli/practiceStimuliCube/practice1_s.png,0,9,,,,,,,,,,
,,,,,,,19,female,A,2020-05-03_16h17.13.236,Remembering_Displays,2020.1.2,MacIntel,60,9,0,0.550475,1,1,0.7935,0,3,3,3,1,Stimuli/practiceStimuliCube/practice4_s.png,Stimuli/practiceStimuliCube/practice4_d.png,1,1,,,,,,,,,,
,,,,,,,19,female,A,2020-05-03_16h17.13.236,Remembering_Displays,2020.1.2,MacIntel,60,1,1,0.659115,9,1,0.699485,0,4,4,1,1,Stimuli/practiceStimuliCube/practice2_s.png,Stimuli/practiceStimuliCube/practice2_d.png,1,1,,,,,,,,,,
,,,,,,,19,female,A,2020-05-03_16h17.13.236,Remembering_Displays,2020.1.2,MacIntel,60,9,1,0.51991,9,1,0.63747,0,5,5,2,1,Stimuli/practiceStimuliCube/practice3_s.png,Stimuli/practiceStimuliCube/practice3_s.png,0,9,,,,,,,,,,
,,,,,,,19,female,A,2020-05-03_16h17.13.236,Remembering_Displays,2020.1.2,MacIntel,60,9,1,0.51217,9,1,0.53949,0,6,6,5,1,Stimuli/practiceStimuliCube/practice2_s.png,Stimuli/practiceStimuliCube/practice2_s.png,0,9,,,,,,,,,,
,,,,,,,19,female,A,2020-05-03_16h17.13.236,Remembering_Displays,2020.1.2,MacIntel,60,1,1,0.620465,1,1,0.693405,0,7,7,4,1,Stimuli/practiceStimuliCube/practice1_s.png,Stimuli/practiceStimuliCube/practice1_d.png,1,1,,,,,,,,,,
,,,,,,,19,female,A,2020-05-03_16h17.13.236,Remembering_Displays,2020.1.2,MacIntel,60,,,,,,,,,,,,,,,,0,2,2,2,1,Stimuli/practiceListCubes.xlsx,Instructions/instr_practice_B.png,Practice trials completed,,
,,,,,,,19,female,A,2020-05-03_16h17.13.236,Remembering_Displays,2020.1.2,MacIntel,60,1,1,1.087445,9,1,0.6408,0,0,0,23,1,Stimuli/testStimuliCube/6u_s_24_s.png,Stimuli/testStimuliCube/6u_d_24_s.png,1,1,,,,,,,,,s,3D
,,,,,,,19,female,A,2020-05-03_16h17.13.236,Remembering_Displays,2020.1.2,MacIntel,60,9,1,0.962545,9,1,0.67735,0,1,1,14,1,Stimuli/testStimuliCube/6u_s_20_s.png,Stimuli/testStimuliCube/6u_s_20_s.png,0,9,,,,,,,,,s,3D
,,,,,,,19,female,A,2020-05-03_16h17.13.236,Remembering_Displays,2020.1.2,MacIntel,60,9,1,0.668665,9,1,0.65188,0,2,2,12,1,Stimuli/testStimuliCube/6u_s_19_s.png,Stimuli/testStimuliCube/6u_s_19_s.png,0,9,,,,,,,,,s,3D
,,,,,,,19,female,A,2020-05-03_16h17.13.236,Remembering_Displays,2020.1.2,MacIntel,60,9,1,0.632255,9,1,0.64659,0,3,3,16,1,Stimuli/testStimuliCube/6u_s_21_s.png,Stimuli/testStimuliCube/6u_s_21_s.png,0,9,,,,,,,,,s,3D
,,,,,,,19,female,A,2020-05-03_16h17.13.236,Remembering_Displays,2020.1.2,MacIntel,60,9,0,0.659325,9,1,0.62442,0,4,4,9,1,Stimuli/testStimuliCube/6u_s_23.png,Stimuli/testStimuliCube/6u_d_23.png,1,1,,,,,,,,,c,3D
,,,,,,,19,female,A,2020-05-03_16h17.13.236,Remembering_Displays,2020.1.2,MacIntel,60,1,1,0.587725,9,1,0.562445,0,5,5,7,1,Stimuli/testStimuliCube/6u_s_22.png,Stimuli/testStimuliCube/6u_d_22.png,1,1,,,,,,,,,c,3D
,,,,,,,19,female,A,2020-05-03_16h17.13.236,Remembering_Displays,2020.1.2,MacIntel,60,9,1,0.534095,9,0,0.699365,0,6,6,0,1,Stimuli/testStimuliCube/6u_s_19.png,Stimuli/testStimuliCube/6u_s_19.png,0,9,,,,,,,,,c,3D
,,,,,,,19,female,A,2020-05-03_16h17.13.236,Remembering_Displays,2020.1.2,MacIntel,60,9,1,0.587365,9,1,0.72104,0,7,7,18,1,Stimuli/testStimuliCube/6u_s_22_s.png,Stimuli/testStimuliCube/6u_s_22_s.png,0,9,,,,,,,,,s,3D
,,,,,,,19,female,A,2020-05-03_16h17.13.236,Remembering_Displays,2020.1.2,MacIntel,60,1,1,0.530245,1,1,0.928705,0,8,8,1,1,Stimuli/testStimuliCube/6u_s_19.png,Stimuli/testStimuliCube/6u_d_19.png,1,1,,,,,,,,,c,3D
,,,,,,,19,female,A,2020-05-03_16h17.13.236,Remembering_Displays,2020.1.2,MacIntel,60,9,1,0.53471,9,1,0.579395,0,9,9,6,1,Stimuli/testStimuliCube/6u_s_22.png,Stimuli/testStimuliCube/6u_s_22.png,0,9,,,,,,,,,c,3D
,,,,,,,19,female,A,2020-05-03_16h17.13.236,Remembering_Displays,2020.1.2,MacIntel,60,1,1,0.72474,9,1,0.68556,0,10,10,13,1,Stimuli/testStimuliCube/6u_s_19_s.png,Stimuli/testStimuliCube/6u_d_19_s.png,1,1,,,,,,,,,s,3D
,,,,,,,19,female,A,2020-05-03_16h17.13.236,Remembering_Displays,2020.1.2,MacIntel,60,9,0,0.585005,9,1,0.63163,0,11,11,11,1,Stimuli/testStimuliCube/6u_s_24.png,Stimuli/testStimuliCube/6u_d_24.png,1,1,,,,,,,,,c,3D
,,,,,,,19,female,A,2020-05-03_16h17.13.236,Remembering_Displays,2020.1.2,MacIntel,60,9,1,0.84774,9,1,0.78311,0,12,12,20,1,Stimuli/testStimuliCube/6u_s_23_s.png,Stimuli/testStimuliCube/6u_s_23_s.png,0,9,,,,,,,,,s,3D
,,,,,,,19,female,A,2020-05-03_16h17.13.236,Remembering_Displays,2020.1.2,MacIntel,60,1,1,0.444735,1,1,0.715435,0,13,13,3,1,Stimuli/testStimuliCube/6u_s_20.png,Stimuli/testStimuliCube/6u_d_20.png,1,1,,,,,,,,,c,3D
,,,,,,,19,female,A,2020-05-03_16h17.13.236,Remembering_Displays,2020.1.2,MacIntel,60,1,1,0.57014,9,1,1.19834,0,14,14,15,1,Stimuli/testStimuliCube/6u_s_20_s.png,Stimuli/testStimuliCube/6u_d_20_s.png,1,1,,,,,,,,,s,3D
,,,,,,,19,female,A,2020-05-03_16h17.13.236,Remembering_Displays,2020.1.2,MacIntel,60,9,1,0.839225,9,1,0.82148,0,15,15,4,1,Stimuli/testStimuliCube/6u_s_21.png,Stimuli/testStimuliCube/6u_s_21.png,0,9,,,,,,,,,c,3D
,,,,,,,19,female,A,2020-05-03_16h17.13.236,Remembering_Displays,2020.1.2,MacIntel,60,9,1,0.79949,9,1,0.51307,0,16,16,10,1,Stimuli/testStimuliCube/6u_s_24.png,Stimuli/testStimuliCube/6u_s_24.png,0,9,,,,,,,,,c,3D
,,,,,,,19,female,A,2020-05-03_16h17.13.236,Remembering_Displays,2020.1.2,MacIntel,60,9,1,0.523335,1,1,0.52129,0,17,17,2,1,Stimuli/testStimuliCube/6u_s_20.png,Stimuli/testStimuliCube/6u_s_20.png,0,9,,,,,,,,,c,3D
,,,,,,,19,female,A,2020-05-03_16h17.13.236,Remembering_Displays,2020.1.2,MacIntel,60,9,0,0.61534,9,1,0.70888,0,18,18,17,1,Stimuli/testStimuliCube/6u_s_21_s.png,Stimuli/testStimuliCube/6u_d_21_s.png,1,1,,,,,,,,,s,3D
,,,,,,,19,female,A,2020-05-03_16h17.13.236,Remembering_Displays,2020.1.2,MacIntel,60,9,0,0.89964,1,1,0.818085,0,19,19,21,1,Stimuli/testStimuliCube/6u_s_23_s.png,Stimuli/testStimuliCube/6u_d_23_s.png,1,1,,,,,,,,,s,3D
,,,,,,,19,female,A,2020-05-03_16h17.13.236,Remembering_Displays,2020.1.2,MacIntel,60,9,1,0.74624,9,1,0.98329,0,20,20,22,1,Stimuli/testStimuliCube/6u_s_24_s.png,Stimuli/testStimuliCube/6u_s_24_s.png,0,9,,,,,,,,,s,3D
,,,,,,,19,female,A,2020-05-03_16h17.13.236,Remembering_Displays,2020.1.2,MacIntel,60,1,1,0.60339,9,1,0.8545,0,21,21,5,1,Stimuli/testStimuliCube/6u_s_21.png,Stimuli/testStimuliCube/6u_d_21.png,1,1,,,,,,,,,c,3D
,,,,,,,19,female,A,2020-05-03_16h17.13.236,Remembering_Displays,2020.1.2,MacIntel,60,1,1,0.534295,1,1,0.73913,0,22,22,19,1,Stimuli/testStimuliCube/6u_s_22_s.png,Stimuli/testStimuliCube/6u_d_22_s.png,1,1,,,,,,,,,s,3D
,,,,,,,19,female,A,2020-05-03_16h17.13.236,Remembering_Displays,2020.1.2,MacIntel,60,9,1,0.59549,1,1,0.674845,0,23,23,8,1,Stimuli/testStimuliCube/6u_s_23.png,Stimuli/testStimuliCube/6u_s_23.png,0,9,,,,,,,,,c,3D
,,,,,,,19,female,A,2020-05-03_16h17.13.236,Remembering_Displays,2020.1.2,MacIntel,60,,,,,,,,,,,,,,,,0,3,3,3,1,Stimuli/trialListCubes4.xlsx,Instructions/instr_19.png,Progress: 48 of 192 trials completed,,
,,,,,,,19,female,A,2020-05-03_16h17.13.236,Remembering_Displays,2020.1.2,MacIntel,60,1,1,0.73495,9,1,1.2166,0,0,0,15,1,Stimuli/testStimuliSquare/6u_s_8_s_2D.png,Stimuli/testStimuliSquare/6u_d_8_s_2D.png,1,1,,,,,,,,,s,2D
,,,,,,,19,female,A,2020-05-03_16h17.13.236,Remembering_Displays,2020.1.2,MacIntel,60,9,1,0.46772,9,1,0.846025,0,1,1,6,1,Stimuli/testStimuliSquare/6u_s_10_2D.png,Stimuli/testStimuliSquare/6u_s_10_2D.png,0,9,,,,,,,,,c,2D
,,,,,,,19,female,A,2020-05-03_16h17.13.236,Remembering_Displays,2020.1.2,MacIntel,60,9,1,0.482845,1,1,0.39435,0,2,2,10,1,Stimuli/testStimuliSquare/6u_s_12_2D.png,Stimuli/testStimuliSquare/6u_s_12_2D.png,0,9,,,,,,,,,c,2D
,,,,,,,19,female,A,2020-05-03_16h17.13.236,Remembering_Displays,2020.1.2,MacIntel,60,1,1,0.664355,1,1,0.921225,0,3,3,11,1,Stimuli/testStimuliSquare/6u_s_12_2D.png,Stimuli/testStimuliSquare/6u_d_12_2D.png,1,1,,,,,,,,,c,2D
,,,,,,,19,female,A,2020-05-03_16h17.13.236,Remembering_Displays,2020.1.2,MacIntel,60,9,0,0.478625,9,1,0.799915,0,4,4,23,1,Stimuli/testStimuliSquare/6u_s_12_s_2D.png,Stimuli/testStimuliSquare/6u_d_12_s_2D.png,1,1,,,,,,,,,s,2D
,,,,,,,19,female,A,2020-05-03_16h17.13.236,Remembering_Displays,2020.1.2,MacIntel,60,9,1,0.75447,1,1,1.20723,0,5,5,22,1,Stimuli/testStimuliSquare/6u_s_12_s_2D.png,Stimuli/testStimuliSquare/6u_s_12_s_2D.png,0,9,,,,,,,,,s,2D
,,,,,,,19,female,A,2020-05-03_16h17.13.236,Remembering_Displays,2020.1.2,MacIntel,60,9,0,0.751255,1,1,0.834045,0,6,6,5,1,Stimuli/testStimuliSquare/6u_s_9_2D.png,Stimuli/testStimuliSquare/6u_d_9_2D.png,1,1,,,,,,,,,c,2D
,,,,,,,19,female,A,2020-05-03_16h17.13.236,Remembering_Displays,2020.1.2,MacIntel,60,1,1,0.76716,1,1,0.77988,0,7,7,13,1,Stimuli/testStimuliSquare/6u_s_7_s_2D.png,Stimuli/testStimuliSquare/6u_d_7_s_2D.png,1,1,,,,,,,,,s,2D
,,,,,,,19,female,A,2020-05-03_16h17.13.236,Remembering_Displays,2020.1.2,MacIntel,60,9,1,0.617825,1,1,0.933725,0,8,8,16,1,Stimuli/testStimuliSquare/6u_s_9_s_2D.png,Stimuli/testStimuliSquare/6u_s_9_s_2D.png,0,9,,,,,,,,,s,2D
,,,,,,,19,female,A,2020-05-03_16h17.13.236,Remembering_Displays,2020.1.2,MacIntel,60,9,1,0.835095,1,1,0.461255,0,9,9,20,1,Stimuli/testStimuliSquare/6u_s_11_s_2D.png,Stimuli/testStimuliSquare/6u_s_11_s_2D.png,0,9,,,,,,,,,s,2D
,,,,,,,19,female,A,2020-05-03_16h17.13.236,Remembering_Displays,2020.1.2,MacIntel,60,1,1,0.668265,1,1,1.134445,0,10,10,19,1,Stimuli/testStimuliSquare/6u_s_10_s_2D.png,Stimuli/testStimuliSquare/6u_d_10_s_2D.png,1,1,,,,,,,,,s,2D
,,,,,,,19,female,A,2020-05-03_16h17.13.236,Remembering_Displays,2020.1.2,MacIntel,60,1,1,0.99681,1,1,0.682275,0,11,11,17,1,Stimuli/testStimuliSquare/6u_s_9_s_2D.png,Stimuli/testStimuliSquare/6u_d_9_s_2D.png,1,1,,,,,,,,,s,2D
,,,,,,,19,female,A,2020-05-03_16h17.13.236,Remembering_Displays,2020.1.2,MacIntel,60,1,0,1.085815,9,1,0.901155,0,12,12,8,1,Stimuli/testStimuliSquare/6u_s_11_2D.png,Stimuli/testStimuliSquare/6u_s_11_2D.png,0,9,,,,,,,,,c,2D
,,,,,,,19,female,A,2020-05-03_16h17.13.236,Remembering_Displays,2020.1.2,MacIntel,60,9,1,0.546205,9,1,0.866475,0,13,13,2,1,Stimuli/testStimuliSquare/6u_s_8_2D.png,Stimuli/testStimuliSquare/6u_s_8_2D.png,0,9,,,,,,,,,c,2D
,,,,,,,19,female,A,2020-05-03_16h17.13.236,Remembering_Displays,2020.1.2,MacIntel,60,9,1,0.6763,1,0,0.790545,0,14,14,18,1,Stimuli/testStimuliSquare/6u_s_10_s_2D.png,Stimuli/testStimuliSquare/6u_s_10_s_2D.png,0,9,,,,,,,,,s,2D
,,,,,,,19,female,A,2020-05-03_16h17.13.236,Remembering_Displays,2020.1.2,MacIntel,60,1,1,0.52824,9,1,0.60427,0,15,15,1,1,Stimuli/testStimuliSquare/6u_s_7_2D.png,Stimuli/testStimuliSquare/6u_d_7_2D.png,1,1,,,,,,,,,c,2D
,,,,,,,19,female,A,2020-05-03_16h17.13.236,Remembering_Displays,2020.1.2,MacIntel,60,9,1,0.513325,9,1,1.08432,0,16,16,12,1,Stimuli/testStimuliSquare/6u_s_7_s_2D.png,Stimuli/testStimuliSquare/6u_s_7_s_2D.png,0,9,,,,,,,,,s,2D
,,,,,,,19,female,A,2020-05-03_16h17.13.236,Remembering_Displays,2020.1.2,MacIntel,60,9,1,0.49809,1,1,1.177895,0,17,17,4,1,Stimuli/testStimuliSquare/6u_s_9_2D.png,Stimuli/testStimuliSquare/6u_s_9_2D.png,0,9,,,,,,,,,c,2D
,,,,,,,19,female,A,2020-05-03_16h17.13.236,Remembering_Displays,2020.1.2,MacIntel,60,1,1,0.749815,9,1,0.575,0,18,18,9,1,Stimuli/testStimuliSquare/6u_s_11_2D.png,Stimuli/testStimuliSquare/6u_d_11_2D.png,1,1,,,,,,,,,c,2D
,,,,,,,19,female,A,2020-05-03_16h17.13.236,Remembering_Displays,2020.1.2,MacIntel,60,1,1,0.60065,1,1,0.650885,0,19,19,7,1,Stimuli/testStimuliSquare/6u_s_10_2D.png,Stimuli/testStimuliSquare/6u_d_10_2D.png,1,1,,,,,,,,,c,2D
,,,,,,,19,female,A,2020-05-03_16h17.13.236,Remembering_Displays,2020.1.2,MacIntel,60,9,1,0.719915,9,1,0.50554,0,20,20,0,1,Stimuli/testStimuliSquare/6u_s_7_2D.png,Stimuli/testStimuliSquare/6u_s_7_2D.png,0,9,,,,,,,,,c,2D
,,,,,,,19,female,A,2020-05-03_16h17.13.236,Remembering_Displays,2020.1.2,MacIntel,60,9,0,1.31575,1,1,0.527515,0,21,21,3,1,Stimuli/testStimuliSquare/6u_s_8_2D.png,Stimuli/testStimuliSquare/6u_d_8_2D.png,1,1,,,,,,,,,c,2D
,,,,,,,19,female,A,2020-05-03_16h17.13.236,Remembering_Displays,2020.1.2,MacIntel,60,1,1,0.75056,1,1,1.29126,0,22,22,21,1,Stimuli/testStimuliSquare/6u_s_11_s_2D.png,Stimuli/testStimuliSquare/6u_d_11_s_2D.png,1,1,,,,,,,,,s,2D
,,,,,,,19,female,A,2020-05-03_16h17.13.236,Remembering_Displays,2020.1.2,MacIntel,60,9,1,0.85392,9,1,1.449515,0,23,23,14,1,Stimuli/testStimuliSquare/6u_s_8_s_2D.png,Stimuli/testStimuliSquare/6u_s_8_s_2D.png,0,9,,,,,,,,,s,2D
,,,,,,,19,female,A,2020-05-03_16h17.13.236,Remembering_Displays,2020.1.2,MacIntel,60,,,,,,,,,,,,,,,,0,4,4,4,1,Stimuli/trialListSquares2.xlsx,Instructions/instr_18.png,Progress: 72 of 192 trials completed,,
,,,,,,,19,female,A,2020-05-03_16h17.13.236,Remembering_Displays,2020.1.2,MacIntel,60,9,1,0.66262,9,1,1.896605,0,0,0,12,1,Stimuli/testStimuliCube/6u_s_13_s.png,Stimuli/testStimuliCube/6u_s_13_s.png,0,9,,,,,,,,,s,3D
,,,,,,,19,female,A,2020-05-03_16h17.13.236,Remembering_Displays,2020.1.2,MacIntel,60,1,1,0.64544,1,1,0.94001,0,1,1,19,1,Stimuli/testStimuliCube/6u_s_16_s.png,Stimuli/testStimuliCube/6u_d_16_s.png,1,1,,,,,,,,,s,3D
,,,,,,,19,female,A,2020-05-03_16h17.13.236,Remembering_Displays,2020.1.2,MacIntel,60,9,0,0.724625,1,0,0.929915,0,2,2,11,1,Stimuli/testStimuliCube/6u_s_18.png,Stimuli/testStimuliCube/6u_d_18.png,1,1,,,,,,,,,c,3D
,,,,,,,19,female,A,2020-05-03_16h17.13.236,Remembering_Displays,2020.1.2,MacIntel,60,9,1,0.512705,1,1,0.871435,0,3,3,20,1,Stimuli/testStimuliCube/6u_s_17_s.png,Stimuli/testStimuliCube/6u_s_17_s.png,0,9,,,,,,,,,s,3D
,,,,,,,19,female,A,2020-05-03_16h17.13.236,Remembering_Displays,2020.1.2,MacIntel,60,9,1,0.445985,9,0,1.433895,0,4,4,18,1,Stimuli/testStimuliCube/6u_s_16_s.png,Stimuli/testStimuliCube/6u_s_16_s.png,0,9,,,,,,,,,s,3D
,,,,,,,19,female,A,2020-05-03_16h17.13.236,Remembering_Displays,2020.1.2,MacIntel,60,1,1,1.212005,1,1,0.771245,0,5,5,3,1,Stimuli/testStimuliCube/6u_s_14.png,Stimuli/testStimuliCube/6u_d_14.png,1,1,,,,,,,,,c,3D
,,,,,,,19,female,A,2020-05-03_16h17.13.236,Remembering_Displays,2020.1.2,MacIntel,60,1,1,0.651715,9,1,0.71286,0,6,6,5,1,Stimuli/testStimuliCube/6u_s_15.png,Stimuli/testStimuliCube/6u_d_15.png,1,1,,,,,,,,,c,3D
,,,,,,,19,female,A,2020-05-03_16h17.13.236,Remembering_Displays,2020.1.2,MacIntel,60,9,1,0.575645,1,1,0.471425,0,7,7,8,1,Stimuli/testStimuliCube/6u_s_17.png,Stimuli/testStimuliCube/6u_s_17.png,0,9,,,,,,,,,c,3D
,,,,,,,19,female,A,2020-05-03_16h17.13.236,Remembering_Displays,2020.1.2,MacIntel,60,1,1,0.615385,1,1,0.57706,0,8,8,9,1,Stimuli/testStimuliCube/6u_s_17.png,Stimuli/testStimuliCube/6u_d_17.png,1,1,,,,,,,,,c,3D
,,,,,,,19,female,A,2020-05-03_16h17.13.236,Remembering_Displays,2020.1.2,MacIntel,60,1,1,0.540685,1,1,0.900965,0,9,9,1,1,Stimuli/testStimuliCube/6u_s_13.png,Stimuli/testStimuliCube/6u_d_13.png,1,1,,,,,,,,,c,3D
,,,,,,,19,female,A,2020-05-03_16h17.13.236,Remembering_Displays,2020.1.2,MacIntel,60,1,1,1.05741,9,1,1.24617,0,10,10,13,1,Stimuli/testStimuliCube/6u_s_13_s.png,Stimuli/testStimuliCube/6u_d_13_s.png,1,1,,,,,,,,,s,3D
,,,,,,,19,female,A,2020-05-03_16h17.13.236,Remembering_Displays,2020.1.2,MacIntel,60,1,1,0.70835,1,0,0.811175,0,11,11,15,1,Stimuli/testStimuliCube/6u_s_14_s.png,Stimuli/testStimuliCube/6u_d_14_s.png,1,1,,,,,,,,,s,3D
,,,,,,,19,female,A,2020-05-03_16h17.13.236,Remembering_Displays,2020.1.2,MacIntel,60,1,0,1.113575,9,1,0.76383,0,12,12,10,1,Stimuli/testStimuliCube/6u_s_18.png,Stimuli/testStimuliCube/6u_s_18.png,0,9,,,,,,,,,c,3D
,,,,,,,19,female,A,2020-05-03_16h17.13.236,Remembering_Displays,2020.1.2,MacIntel,60,9,1,0.55367,1,1,0.6018,0,13,13,22,1,Stimuli/testStimuliCube/6u_s_18_s.png,Stimuli/testStimuliCube/6u_s_18_s.png,0,9,,,,,,,,,s,3D
,,,,,,,19,female,A,2020-05-03_16h17.13.236,Remembering_Displays,2020.1.2,MacIntel,60,1,1,0.644815,9,1,0.53295,0,14,14,21,1,Stimuli/testStimuliCube/6u_s_17_s.png,Stimuli/testStimuliCube/6u_d_17_s.png,1,1,,,,,,,,,s,3D
,,,,,,,19,female,A,2020-05-03_16h17.13.236,Remembering_Displays,2020.1.2,MacIntel,60,1,1,0.600475,1,1,1.003075,0,15,15,17,1,Stimuli/testStimuliCube/6u_s_15_s.png,Stimuli/testStimuliCube/6u_d_15_s.png,1,1,,,,,,,,,s,3D
,,,,,,,19,female,A,2020-05-03_16h17.13.236,Remembering_Displays,2020.1.2,MacIntel,60,,0,,1,1,0.836445,0,16,16,14,1,Stimuli/testStimuliCube/6u_s_14_s.png,Stimuli/testStimuliCube/6u_s_14_s.png,0,9,,,,,,,,,s,3D
,,,,,,,19,female,A,2020-05-03_16h17.13.236,Remembering_Displays,2020.1.2,MacIntel,60,9,1,0.89784,9,0,0.657775,0,17,17,6,1,Stimuli/testStimuliCube/6u_s_16.png,Stimuli/testStimuliCube/6u_s_16.png,0,9,,,,,,,,,c,3D
,,,,,,,19,female,A,2020-05-03_16h17.13.236,Remembering_Displays,2020.1.2,MacIntel,60,1,1,0.5494,9,1,0.98511,0,18,18,7,1,Stimuli/testStimuliCube/6u_s_16.png,Stimuli/testStimuliCube/6u_d_16.png,1,1,,,,,,,,,c,3D
,,,,,,,19,female,A,2020-05-03_16h17.13.236,Remembering_Displays,2020.1.2,MacIntel,60,9,1,0.561485,1,1,0.51934,0,19,19,2,1,Stimuli/testStimuliCube/6u_s_14.png,Stimuli/testStimuliCube/6u_s_14.png,0,9,,,,,,,,,c,3D
,,,,,,,19,female,A,2020-05-03_16h17.13.236,Remembering_Displays,2020.1.2,MacIntel,60,9,0,0.42784,9,1,0.89668,0,20,20,23,1,Stimuli/testStimuliCube/6u_s_18_s.png,Stimuli/testStimuliCube/6u_d_18_s.png,1,1,,,,,,,,,s,3D
,,,,,,,19,female,A,2020-05-03_16h17.13.236,Remembering_Displays,2020.1.2,MacIntel,60,9,1,0.52346,9,1,1.08673,0,21,21,0,1,Stimuli/testStimuliCube/6u_s_13.png,Stimuli/testStimuliCube/6u_s_13.png,0,9,,,,,,,,,c,3D
,,,,,,,19,female,A,2020-05-03_16h17.13.236,Remembering_Displays,2020.1.2,MacIntel,60,9,1,0.36341,9,1,0.632055,0,22,22,4,1,Stimuli/testStimuliCube/6u_s_15.png,Stimuli/testStimuliCube/6u_s_15.png,0,9,,,,,,,,,c,3D
,,,,,,,19,female,A,2020-05-03_16h17.13.236,Remembering_Displays,2020.1.2,MacIntel,60,9,1,0.349175,1,1,0.92027,0,23,23,16,1,Stimuli/testStimuliCube/6u_s_15_s.png,Stimuli/testStimuliCube/6u_s_15_s.png,0,9,,,,,,,,,s,3D
,,,,,,,19,female,A,2020-05-03_16h17.13.236,Remembering_Displays,2020.1.2,MacIntel,60,,,,,,,,,,,,,,,,0,5,5,5,1,Stimuli/trialListCubes3.xlsx,Instructions/instr_19.png,Progress: 96 of 192 trials completed,,
,,,,,,,19,female,A,2020-05-03_16h17.13.236,Remembering_Displays,2020.1.2,MacIntel,60,1,1,0.905505,1,1,0.546475,0,0,0,23,1,Stimuli/testStimuliSquare/6u_s_18_s_2D.png,Stimuli/testStimuliSquare/6u_d_18_s_2D.png,1,1,,,,,,,,,s,2D
,,,,,,,19,female,A,2020-05-03_16h17.13.236,Remembering_Displays,2020.1.2,MacIntel,60,9,1,0.500815,1,1,0.73431,0,1,1,10,1,Stimuli/testStimuliSquare/6u_s_18_2D.png,Stimuli/testStimuliSquare/6u_s_18_2D.png,0,9,,,,,,,,,c,2D
,,,,,,,19,female,A,2020-05-03_16h17.13.236,Remembering_Displays,2020.1.2,MacIntel,60,9,1,0.72933,1,0,0.520075,0,2,2,22,1,Stimuli/testStimuliSquare/6u_s_18_s_2D.png,Stimuli/testStimuliSquare/6u_s_18_s_2D.png,0,9,,,,,,,,,s,2D
,,,,,,,19,female,A,2020-05-03_16h17.13.236,Remembering_Displays,2020.1.2,MacIntel,60,9,1,0.459715,9,1,0.53467,0,3,3,4,1,Stimuli/testStimuliSquare/6u_s_15_2D.png,Stimuli/testStimuliSquare/6u_s_15_2D.png,0,9,,,,,,,,,c,2D
,,,,,,,19,female,A,2020-05-03_16h17.13.236,Remembering_Displays,2020.1.2,MacIntel,60,9,1,0.616985,1,1,0.45037,0,4,4,2,1,Stimuli/testStimuliSquare/6u_s_14_2D.png,Stimuli/testStimuliSquare/6u_s_14_2D.png,0,9,,,,,,,,,c,2D
,,,,,,,19,female,A,2020-05-03_16h17.13.236,Remembering_Displays,2020.1.2,MacIntel,60,1,1,0.513965,9,1,0.832,0,5,5,1,1,Stimuli/testStimuliSquare/6u_s_13_2D.png,Stimuli/testStimuliSquare/6u_d_13_2D.png,1,1,,,,,,,,,c,2D
,,,,,,,19,female,A,2020-05-03_16h17.13.236,Remembering_Displays,2020.1.2,MacIntel,60,9,1,0.408935,9,1,0.47576,0,6,6,6,1,Stimuli/testStimuliSquare/6u_s_16_2D.png,Stimuli/testStimuliSquare/6u_s_16_2D.png,0,9,,,,,,,,,c,2D
,,,,,,,19,female,A,2020-05-03_16h17.13.236,Remembering_Displays,2020.1.2,MacIntel,60,9,1,0.479185,1,1,0.6939,0,7,7,12,1,Stimuli/testStimuliSquare/6u_s_13_s_2D.png,Stimuli/testStimuliSquare/6u_s_13_s_2D.png,0,9,,,,,,,,,s,2D
,,,,,,,19,female,A,2020-05-03_16h17.13.236,Remembering_Displays,2020.1.2,MacIntel,60,1,1,1.102895,1,1,0.586745,0,8,8,13,1,Stimuli/testStimuliSquare/6u_s_13_s_2D.png,Stimuli/testStimuliSquare/6u_d_13_s_2D.png,1,1,,,,,,,,,s,2D
,,,,,,,19,female,A,2020-05-03_16h17.13.236,Remembering_Displays,2020.1.2,MacIntel,60,1,1,0.56474,9,1,0.7718,0,9,9,3,1,Stimuli/testStimuliSquare/6u_s_14_2D.png,Stimuli/testStimuliSquare/6u_d_14_2D.png,1,1,,,,,,,,,c,2D
,,,,,,,19,female,A,2020-05-03_16h17.13.236,Remembering_Displays,2020.1.2,MacIntel,60,1,1,0.55548,9,1,0.7788,0,10,10,19,1,Stimuli/testStimuliSquare/6u_s_16_s_2D.png,Stimuli/testStimuliSquare/6u_d_16_s_2D.png,1,1,,,,,,,,,s,2D
,,,,,,,19,female,A,2020-05-03_16h17.13.236,Remembering_Displays,2020.1.2,MacIntel,60,9,1,0.461585,9,0,1.01777,0,11,11,0,1,Stimuli/testStimuliSquare/6u_s_13_2D.png,Stimuli/testStimuliSquare/6u_s_13_2D.png,0,9,,,,,,,,,c,2D
,,,,,,,19,female,A,2020-05-03_16h17.13.236,Remembering_Displays,2020.1.2,MacIntel,60,9,1,0.582185,1,1,0.528825,0,12,12,20,1,Stimuli/testStimuliSquare/6u_s_17_s_2D.png,Stimuli/testStimuliSquare/6u_s_17_s_2D.png,0,9,,,,,,,,,s,2D
,,,,,,,19,female,A,2020-05-03_16h17.13.236,Remembering_Displays,2020.1.2,MacIntel,60,1,1,0.44323,9,1,0.39331,0,13,13,21,1,Stimuli/testStimuliSquare/6u_s_17_s_2D.png,Stimuli/testStimuliSquare/6u_d_17_s_2D.png,1,1,,,,,,,,,s,2D
,,,,,,,19,female,A,2020-05-03_16h17.13.236,Remembering_Displays,2020.1.2,MacIntel,60,1,1,0.71333,9,1,0.57756,0,14,14,9,1,Stimuli/testStimuliSquare/6u_s_17_2D.png,Stimuli/testStimuliSquare/6u_d_17_2D.png,1,1,,,,,,,,,c,2D
,,,,,,,19,female,A,2020-05-03_16h17.13.236,Remembering_Displays,2020.1.2,MacIntel,60,9,1,0.551385,1,1,0.80053,0,15,15,8,1,Stimuli/testStimuliSquare/6u_s_17_2D.png,Stimuli/testStimuliSquare/6u_s_17_2D.png,0,9,,,,,,,,,c,2D
,,,,,,,19,female,A,2020-05-03_16h17.13.236,Remembering_Displays,2020.1.2,MacIntel,60,9,1,0.97238,1,1,0.6975,0,16,16,16,1,Stimuli/testStimuliSquare/6u_s_15_s_2D.png,Stimuli/testStimuliSquare/6u_s_15_s_2D.png,0,9,,,,,,,,,s,2D
,,,,,,,19,female,A,2020-05-03_16h17.13.236,Remembering_Displays,2020.1.2,MacIntel,60,1,1,0.479075,1,1,0.41661,0,17,17,15,1,Stimuli/testStimuliSquare/6u_s_14_s_2D.png,Stimuli/testStimuliSquare/6u_d_14_s_2D.png,1,1,,,,,,,,,s,2D
,,,,,,,19,female,A,2020-05-03_16h17.13.236,Remembering_Displays,2020.1.2,MacIntel,60,9,1,0.523945,1,0,0.435595,0,18,18,18,1,Stimuli/testStimuliSquare/6u_s_16_s_2D.png,Stimuli/testStimuliSquare/6u_s_16_s_2D.png,0,9,,,,,,,,,s,2D
,,,,,,,19,female,A,2020-05-03_16h17.13.236,Remembering_Displays,2020.1.2,MacIntel,60,1,1,0.431235,1,1,1.187655,0,19,19,7,1,Stimuli/testStimuliSquare/6u_s_16_2D.png,Stimuli/testStimuliSquare/6u_d_16_2D.png,1,1,,,,,,,,,c,2D
,,,,,,,19,female,A,2020-05-03_16h17.13.236,Remembering_Displays,2020.1.2,MacIntel,60,1,1,0.4506,1,1,0.66701,0,20,20,17,1,Stimuli/testStimuliSquare/6u_s_15_s_2D.png,Stimuli/testStimuliSquare/6u_d_15_s_2D.png,1,1,,,,,,,,,s,2D
,,,,,,,19,female,A,2020-05-03_16h17.13.236,Remembering_Displays,2020.1.2,MacIntel,60,9,1,0.637705,1,1,0.483375,0,21,21,14,1,Stimuli/testStimuliSquare/6u_s_14_s_2D.png,Stimuli/testStimuliSquare/6u_s_14_s_2D.png,0,9,,,,,,,,,s,2D
,,,,,,,19,female,A,2020-05-03_16h17.13.236,Remembering_Displays,2020.1.2,MacIntel,60,9,0,0.50797,9,1,0.88569,0,22,22,11,1,Stimuli/testStimuliSquare/6u_s_18_2D.png,Stimuli/testStimuliSquare/6u_d_18_2D.png,1,1,,,,,,,,,c,2D
,,,,,,,19,female,A,2020-05-03_16h17.13.236,Remembering_Displays,2020.1.2,MacIntel,60,9,0,0.486805,9,1,0.784645,0,23,23,5,1,Stimuli/testStimuliSquare/6u_s_15_2D.png,Stimuli/testStimuliSquare/6u_d_15_2D.png,1,1,,,,,,,,,c,2D
,,,,,,,19,female,A,2020-05-03_16h17.13.236,Remembering_Displays,2020.1.2,MacIntel,60,,,,,,,,,,,,,,,,0,6,6,6,1,Stimuli/trialListSquares3.xlsx,Instructions/instr_18.png,Progress: 120 of 192 trials completed,,
,,,,,,,19,female,A,2020-05-03_16h17.13.236,Remembering_Displays,2020.1.2,MacIntel,60,9,1,0.40693,1,1,0.8343,0,0,0,0,1,Stimuli/testStimuliCube/6u_s_7.png,Stimuli/testStimuliCube/6u_s_7.png,0,9,,,,,,,,,c,3D
,,,,,,,19,female,A,2020-05-03_16h17.13.236,Remembering_Displays,2020.1.2,MacIntel,60,1,1,0.427365,9,1,0.45364,0,1,1,19,1,Stimuli/testStimuliCube/6u_s_10_s.png,Stimuli/testStimuliCube/6u_d_10_s.png,1,1,,,,,,,,,s,3D
,,,,,,,19,female,A,2020-05-03_16h17.13.236,Remembering_Displays,2020.1.2,MacIntel,60,9,0,0.45132,9,1,0.76081,0,2,2,23,1,Stimuli/testStimuliCube/6u_s_12_s.png,Stimuli/testStimuliCube/6u_d_12_s.png,1,1,,,,,,,,,s,3D
,,,,,,,19,female,A,2020-05-03_16h17.13.236,Remembering_Displays,2020.1.2,MacIntel,60,9,1,0.42904,9,1,0.86197,0,3,3,22,1,Stimuli/testStimuliCube/6u_s_12_s.png,Stimuli/testStimuliCube/6u_s_12_s.png,0,9,,,,,,,,,s,3D
,,,,,,,19,female,A,2020-05-03_16h17.13.236,Remembering_Displays,2020.1.2,MacIntel,60,9,0,0.500495,1,1,0.50818,0,4,4,3,1,Stimuli/testStimuliCube/6u_s_8.png,Stimuli/testStimuliCube/6u_d_8.png,1,1,,,,,,,,,c,3D
,,,,,,,19,female,A,2020-05-03_16h17.13.236,Remembering_Displays,2020.1.2,MacIntel,60,9,0,0.382895,9,0,0.910275,0,5,5,9,1,Stimuli/testStimuliCube/6u_s_11.png,Stimuli/testStimuliCube/6u_d_11.png,1,1,,,,,,,,,c,3D
,,,,,,,19,female,A,2020-05-03_16h17.13.236,Remembering_Displays,2020.1.2,MacIntel,60,1,0,0.46584,9,1,0.503065,0,6,6,16,1,Stimuli/testStimuliCube/6u_s_9_s.png,Stimuli/testStimuliCube/6u_s_9_s.png,0,9,,,,,,,,,s,3D
,,,,,,,19,female,A,2020-05-03_16h17.13.236,Remembering_Displays,2020.1.2,MacIntel,60,9,1,0.44461,9,1,0.479075,0,7,7,10,1,Stimuli/testStimuliCube/6u_s_12.png,Stimuli/testStimuliCube/6u_s_12.png,0,9,,,,,,,,,c,3D
,,,,,,,19,female,A,2020-05-03_16h17.13.236,Remembering_Displays,2020.1.2,MacIntel,60,1,1,0.6337,1,1,0.56742,0,8,8,7,1,Stimuli/testStimuliCube/6u_s_10.png,Stimuli/testStimuliCube/6u_d_10.png,1,1,,,,,,,,,c,3D
,,,,,,,19,female,A,2020-05-03_16h17.13.236,Remembering_Displays,2020.1.2,MacIntel,60,1,1,0.56612,1,1,0.549705,0,9,9,17,1,Stimuli/testStimuliCube/6u_s_9_s.png,Stimuli/testStimuliCube/6u_d_9_s.png,1,1,,,,,,,,,s,3D
,,,,,,,19,female,A,2020-05-03_16h17.13.236,Remembering_Displays,2020.1.2,MacIntel,60,1,1,0.557795,1,1,0.56615,0,10,10,1,1,Stimuli/testStimuliCube/6u_s_7.png,Stimuli/testStimuliCube/6u_d_7.png,1,1,,,,,,,,,c,3D
,,,,,,,19,female,A,2020-05-03_16h17.13.236,Remembering_Displays,2020.1.2,MacIntel,60,9,1,0.500195,1,1,0.49313,0,11,11,14,1,Stimuli/testStimuliCube/6u_s_8_s.png,Stimuli/testStimuliCube/6u_s_8_s.png,0,9,,,,,,,,,s,3D
,,,,,,,19,female,A,2020-05-03_16h17.13.236,Remembering_Displays,2020.1.2,MacIntel,60,9,1,0.72241,1,1,0.432025,0,12,12,12,1,Stimuli/testStimuliCube/6u_s_7_s.png,Stimuli/testStimuliCube/6u_s_7_s.png,0,9,,,,,,,,,s,3D
,,,,,,,19,female,A,2020-05-03_16h17.13.236,Remembering_Displays,2020.1.2,MacIntel,60,1,1,0.668275,9,1,0.899235,0,13,13,5,1,Stimuli/testStimuliCube/6u_s_9.png,Stimuli/testStimuliCube/6u_d_9.png,1,1,,,,,,,,,c,3D
,,,,,,,19,female,A,2020-05-03_16h17.13.236,Remembering_Displays,2020.1.2,MacIntel,60,9,0,1.063255,1,1,1.050195,0,14,14,21,1,Stimuli/testStimuliCube/6u_s_11_s.png,Stimuli/testStimuliCube/6u_d_11_s.png,1,1,,,,,,,,,s,3D
,,,,,,,19,female,A,2020-05-03_16h17.13.236,Remembering_Displays,2020.1.2,MacIntel,60,9,1,0.50202,1,0,0.649375,0,15,15,2,1,Stimuli/testStimuliCube/6u_s_8.png,Stimuli/testStimuliCube/6u_s_8.png,0,9,,,,,,,,,c,3D
,,,,,,,19,female,A,2020-05-03_16h17.13.236,Remembering_Displays,2020.1.2,MacIntel,60,9,1,0.36163,9,1,0.578525,0,16,16,6,1,Stimuli/testStimuliCube/6u_s_10.png,Stimuli/testStimuliCube/6u_s_10.png,0,9,,,,,,,,,c,3D
,,,,,,,19,female,A,2020-05-03_16h17.13.236,Remembering_Displays,2020.1.2,MacIntel,60,9,1,0.375765,1,1,0.383795,0,17,17,4,1,Stimuli/testStimuliCube/6u_s_9.png,Stimuli/testStimuliCube/6u_s_9.png,0,9,,,,,,,,,c,3D
,,,,,,,19,female,A,2020-05-03_16h17.13.236,Remembering_Displays,2020.1.2,MacIntel,60,9,0,0.72094,1,1,0.793815,0,18,18,11,1,Stimuli/testStimuliCube/6u_s_12.png,Stimuli/testStimuliCube/6u_d_12.png,1,1,,,,,,,,,c,3D
,,,,,,,19,female,A,2020-05-03_16h17.13.236,Remembering_Displays,2020.1.2,MacIntel,60,9,1,0.847675,1,0,1.535085,0,19,19,20,1,Stimuli/testStimuliCube/6u_s_11_s.png,Stimuli/testStimuliCube/6u_s_11_s.png,0,9,,,,,,,,,s,3D
,,,,,,,19,female,A,2020-05-03_16h17.13.236,Remembering_Displays,2020.1.2,MacIntel,60,1,1,0.46746,9,0,0.5528,0,20,20,15,1,Stimuli/testStimuliCube/6u_s_8_s.png,Stimuli/testStimuliCube/6u_d_8_s.png,1,1,,,,,,,,,s,3D
,,,,,,,19,female,A,2020-05-03_16h17.13.236,Remembering_Displays,2020.1.2,MacIntel,60,1,1,0.734265,1,0,0.50079,0,21,21,13,1,Stimuli/testStimuliCube/6u_s_7_s.png,Stimuli/testStimuliCube/6u_d_7_s.png,1,1,,,,,,,,,s,3D
,,,,,,,19,female,A,2020-05-03_16h17.13.236,Remembering_Displays,2020.1.2,MacIntel,60,9,1,0.46732,1,1,0.660495,0,22,22,8,1,Stimuli/testStimuliCube/6u_s_11.png,Stimuli/testStimuliCube/6u_s_11.png,0,9,,,,,,,,,c,3D
,,,,,,,19,female,A,2020-05-03_16h17.13.236,Remembering_Displays,2020.1.2,MacIntel,60,9,1,0.46056,9,1,0.472005,0,23,23,18,1,Stimuli/testStimuliCube/6u_s_10_s.png,Stimuli/testStimuliCube/6u_s_10_s.png,0,9,,,,,,,,,s,3D
,,,,,,,19,female,A,2020-05-03_16h17.13.236,Remembering_Displays,2020.1.2,MacIntel,60,,,,,,,,,,,,,,,,0,7,7,7,1,Stimuli/trialListCubes2.xlsx,Instructions/instr_19.png,Progress: 144 of 192 trials completed,,
,,,,,,,19,female,A,2020-05-03_16h17.13.236,Remembering_Displays,2020.1.2,MacIntel,60,9,1,0.583835,1,1,0.33199,0,0,0,20,1,Stimuli/testStimuliSquare/6u_s_23_s_2D.png,Stimuli/testStimuliSquare/6u_s_23_s_2D.png,0,9,,,,,,,,,s,2D
,,,,,,,19,female,A,2020-05-03_16h17.13.236,Remembering_Displays,2020.1.2,MacIntel,60,1,1,0.480685,1,1,0.50716,0,1,1,9,1,Stimuli/testStimuliSquare/6u_s_23_2D.png,Stimuli/testStimuliSquare/6u_d_23_2D.png,1,1,,,,,,,,,c,2D
,,,,,,,19,female,A,2020-05-03_16h17.13.236,Remembering_Displays,2020.1.2,MacIntel,60,9,1,0.48702,1,1,0.479065,0,2,2,18,1,Stimuli/testStimuliSquare/6u_s_22_s_2D.png,Stimuli/testStimuliSquare/6u_s_22_s_2D.png,0,9,,,,,,,,,s,2D
,,,,,,,19,female,A,2020-05-03_16h17.13.236,Remembering_Displays,2020.1.2,MacIntel,60,9,1,0.414535,1,1,0.715245,0,3,3,14,1,Stimuli/testStimuliSquare/6u_s_20_s_2D.png,Stimuli/testStimuliSquare/6u_s_20_s_2D.png,0,9,,,,,,,,,s,2D
,,,,,,,19,female,A,2020-05-03_16h17.13.236,Remembering_Displays,2020.1.2,MacIntel,60,9,1,0.428965,1,0,0.71666,0,4,4,22,1,Stimuli/testStimuliSquare/6u_s_24_s_2D.png,Stimuli/testStimuliSquare/6u_s_24_s_2D.png,0,9,,,,,,,,,s,2D
,,,,,,,19,female,A,2020-05-03_16h17.13.236,Remembering_Displays,2020.1.2,MacIntel,60,1,1,0.51844,9,1,0.664895,0,5,5,19,1,Stimuli/testStimuliSquare/6u_s_22_s_2D.png,Stimuli/testStimuliSquare/6u_d_22_s_2D.png,1,1,,,,,,,,,s,2D
,,,,,,,19,female,A,2020-05-03_16h17.13.236,Remembering_Displays,2020.1.2,MacIntel,60,1,1,0.543855,1,1,0.414355,0,6,6,1,1,Stimuli/testStimuliSquare/6u_s_19_2D.png,Stimuli/testStimuliSquare/6u_d_19_2D.png,1,1,,,,,,,,,c,2D
,,,,,,,19,female,A,2020-05-03_16h17.13.236,Remembering_Displays,2020.1.2,MacIntel,60,1,1,0.462835,9,1,0.471715,0,7,7,11,1,Stimuli/testStimuliSquare/6u_s_24_2D.png,Stimuli/testStimuliSquare/6u_d_24_2D.png,1,1,,,,,,,,,c,2D
,,,,,,,19,female,A,2020-05-03_16h17.13.236,Remembering_Displays,2020.1.2,MacIntel,60,1,1,0.451395,9,1,0.56188,0,8,8,17,1,Stimuli/testStimuliSquare/6u_s_21_s_2D.png,Stimuli/testStimuliSquare/6u_d_21_s_2D.png,1,1,,,,,,,,,s,2D
,,,,,,,19,female,A,2020-05-03_16h17.13.236,Remembering_Displays,2020.1.2,MacIntel,60,1,0,0.446255,9,1,0.307315,0,9,9,12,1,Stimuli/testStimuliSquare/6u_s_19_s_2D.png,Stimuli/testStimuliSquare/6u_s_19_s_2D.png,0,9,,,,,,,,,s,2D
,,,,,,,19,female,A,2020-05-03_16h17.13.236,Remembering_Displays,2020.1.2,MacIntel,60,9,1,0.88016,9,1,0.556495,0,10,10,6,1,Stimuli/testStimuliSquare/6u_s_22_2D.png,Stimuli/testStimuliSquare/6u_s_22_2D.png,0,9,,,,,,,,,c,2D
,,,,,,,19,female,A,2020-05-03_16h17.13.236,Remembering_Displays,2020.1.2,MacIntel,60,1,1,0.478545,1,1,0.35253,0,11,11,23,1,Stimuli/testStimuliSquare/6u_s_24_s_2D.png,Stimuli/testStimuliSquare/6u_d_24_s_2D.png,1,1,,,,,,,,,s,2D
,,,,,,,19,female,A,2020-05-03_16h17.13.236,Remembering_Displays,2020.1.2,MacIntel,60,1,1,0.74226,1,1,0.448595,0,12,12,21,1,Stimuli/testStimuliSquare/6u_s_23_s_2D.png,Stimuli/testStimuliSquare/6u_d_23_s_2D.png,1,1,,,,,,,,,s,2D
,,,,,,,19,female,A,2020-05-03_16h17.13.236,Remembering_Displays,2020.1.2,MacIntel,60,9,1,0.576455,1,1,0.368785,0,13,13,8,1,Stimuli/testStimuliSquare/6u_s_23_2D.png,Stimuli/testStimuliSquare/6u_s_23_2D.png,0,9,,,,,,,,,c,2D
,,,,,,,19,female,A,2020-05-03_16h17.13.236,Remembering_Displays,2020.1.2,MacIntel,60,1,1,0.401415,9,0,0.598155,0,14,14,5,1,Stimuli/testStimuliSquare/6u_s_21_2D.png,Stimuli/testStimuliSquare/6u_d_21_2D.png,1,1,,,,,,,,,c,2D
,,,,,,,19,female,A,2020-05-03_16h17.13.236,Remembering_Displays,2020.1.2,MacIntel,60,1,1,0.490195,1,1,0.393045,0,15,15,13,1,Stimuli/testStimuliSquare/6u_s_19_s_2D.png,Stimuli/testStimuliSquare/6u_d_19_s_2D.png,1,1,,,,,,,,,s,2D
,,,,,,,19,female,A,2020-05-03_16h17.13.236,Remembering_Displays,2020.1.2,MacIntel,60,1,0,0.396215,1,1,0.48894,0,16,16,4,1,Stimuli/testStimuliSquare/6u_s_21_2D.png,Stimuli/testStimuliSquare/6u_s_21_2D.png,0,9,,,,,,,,,c,2D
,,,,,,,19,female,A,2020-05-03_16h17.13.236,Remembering_Displays,2020.1.2,MacIntel,60,9,1,0.645795,9,1,0.80356,0,17,17,10,1,Stimuli/testStimuliSquare/6u_s_24_2D.png,Stimuli/testStimuliSquare/6u_s_24_2D.png,0,9,,,,,,,,,c,2D
,,,,,,,19,female,A,2020-05-03_16h17.13.236,Remembering_Displays,2020.1.2,MacIntel,60,1,1,0.459055,1,0,0.46472,0,18,18,15,1,Stimuli/testStimuliSquare/6u_s_20_s_2D.png,Stimuli/testStimuliSquare/6u_d_20_s_2D.png,1,1,,,,,,,,,s,2D
,,,,,,,19,female,A,2020-05-03_16h17.13.236,Remembering_Displays,2020.1.2,MacIntel,60,9,1,0.62863,9,1,0.49298,0,19,19,0,1,Stimuli/testStimuliSquare/6u_s_19_2D.png,Stimuli/testStimuliSquare/6u_s_19_2D.png,0,9,,,,,,,,,c,2D
,,,,,,,19,female,A,2020-05-03_16h17.13.236,Remembering_Displays,2020.1.2,MacIntel,60,1,1,0.394545,1,1,0.822185,0,20,20,3,1,Stimuli/testStimuliSquare/6u_s_20_2D.png,Stimuli/testStimuliSquare/6u_d_20_2D.png,1,1,,,,,,,,,c,2D
,,,,,,,19,female,A,2020-05-03_16h17.13.236,Remembering_Displays,2020.1.2,MacIntel,60,1,0,0.616125,9,1,0.90029,0,21,21,16,1,Stimuli/testStimuliSquare/6u_s_21_s_2D.png,Stimuli/testStimuliSquare/6u_s_21_s_2D.png,0,9,,,,,,,,,s,2D
,,,,,,,19,female,A,2020-05-03_16h17.13.236,Remembering_Displays,2020.1.2,MacIntel,60,9,1,0.48104,9,1,0.351285,0,22,22,2,1,Stimuli/testStimuliSquare/6u_s_20_2D.png,Stimuli/testStimuliSquare/6u_s_20_2D.png,0,9,,,,,,,,,c,2D
,,,,,,,19,female,A,2020-05-03_16h17.13.236,Remembering_Displays,2020.1.2,MacIntel,60,1,1,0.384555,9,1,0.610495,0,23,23,7,1,Stimuli/testStimuliSquare/6u_s_22_2D.png,Stimuli/testStimuliSquare/6u_d_22_2D.png,1,1,,,,,,,,,c,2D
,,,,,,,19,female,A,2020-05-03_16h17.13.236,Remembering_Displays,2020.1.2,MacIntel,60,,,,,,,,,,,,,,,,0,8,8,8,1,Stimuli/trialListSquares4.xlsx,Instructions/instr_18.png,Progress: 168 of 192 trials completed,,
,,,,,,,19,female,A,2020-05-03_16h17.13.236,Remembering_Displays,2020.1.2,MacIntel,60,1,1,0.60157,1,1,1.50532,0,0,0,23,1,Stimuli/testStimuliCube/6u_s_6_s.png,Stimuli/testStimuliCube/6u_d_6_s.png,1,1,,,,,,,,,s,3D
,,,,,,,19,female,A,2020-05-03_16h17.13.236,Remembering_Displays,2020.1.2,MacIntel,60,9,1,0.459575,9,1,0.666105,0,1,1,10,1,Stimuli/testStimuliCube/6u_s_6.png,Stimuli/testStimuliCube/6u_s_6.png,0,9,,,,,,,,,c,3D
,,,,,,,19,female,A,2020-05-03_16h17.13.236,Remembering_Displays,2020.1.2,MacIntel,60,9,1,0.37744,1,0,1.39351,0,2,2,0,1,Stimuli/testStimuliCube/6u_s_1.png,Stimuli/testStimuliCube/6u_s_1.png,0,9,,,,,,,,,c,3D
,,,,,,,19,female,A,2020-05-03_16h17.13.236,Remembering_Displays,2020.1.2,MacIntel,60,9,1,0.34414,9,1,0.44825,0,3,3,6,1,Stimuli/testStimuliCube/6u_s_4.png,Stimuli/testStimuliCube/6u_s_4.png,0,9,,,,,,,,,c,3D
,,,,,,,19,female,A,2020-05-03_16h17.13.236,Remembering_Displays,2020.1.2,MacIntel,60,9,1,0.504685,9,1,0.415595,0,4,4,14,1,Stimuli/testStimuliCube/6u_s_2_s.png,Stimuli/testStimuliCube/6u_s_2_s.png,0,9,,,,,,,,,s,3D
,,,,,,,19,female,A,2020-05-03_16h17.13.236,Remembering_Displays,2020.1.2,MacIntel,60,1,1,0.786535,9,1,0.532625,0,5,5,7,1,Stimuli/testStimuliCube/6u_s_4.png,Stimuli/testStimuliCube/6u_d_4.png,1,1,,,,,,,,,c,3D
,,,,,,,19,female,A,2020-05-03_16h17.13.236,Remembering_Displays,2020.1.2,MacIntel,60,9,0,0.345305,1,1,0.36793,0,6,6,3,1,Stimuli/testStimuliCube/6u_s_2.png,Stimuli/testStimuliCube/6u_d_2.png,1,1,,,,,,,,,c,3D
,,,,,,,19,female,A,2020-05-03_16h17.13.236,Remembering_Displays,2020.1.2,MacIntel,60,9,1,0.35245,1,1,0.53289,0,7,7,18,1,Stimuli/testStimuliCube/6u_s_4_s.png,Stimuli/testStimuliCube/6u_s_4_s.png,0,9,,,,,,,,,s,3D
,,,,,,,19,female,A,2020-05-03_16h17.13.236,Remembering_Displays,2020.1.2,MacIntel,60,9,0,0.36609,9,1,0.798555,0,8,8,9,1,Stimuli/testStimuliCube/6u_s_5.png,Stimuli/testStimuliCube/6u_d_5.png,1,1,,,,,,,,,c,3D
,,,,,,,19,female,A,2020-05-03_16h17.13.236,Remembering_Displays,2020.1.2,MacIntel,60,9,0,0.467325,9,1,0.61412,0,9,9,21,1,Stimuli/testStimuliCube/6u_s_5_s.png,Stimuli/testStimuliCube/6u_d_5_s.png,1,1,,,,,,,,,s,3D
,,,,,,,19,female,A,2020-05-03_16h17.13.236,Remembering_Displays,2020.1.2,MacIntel,60,9,1,0.48286,1,1,0.44159,0,10,10,16,1,Stimuli/testStimuliCube/6u_s_3_s.png,Stimuli/testStimuliCube/6u_s_3_s.png,0,9,,,,,,,,,s,3D
,,,,,,,19,female,A,2020-05-03_16h17.13.236,Remembering_Displays,2020.1.2,MacIntel,60,9,0,0.30815,9,1,0.54419,0,11,11,17,1,Stimuli/testStimuliCube/6u_s_3_s.png,Stimuli/testStimuliCube/6u_d_3_s.png,1,1,,,,,,,,,s,3D
,,,,,,,19,female,A,2020-05-03_16h17.13.236,Remembering_Displays,2020.1.2,MacIntel,60,9,1,0.58018,9,1,0.6144,0,12,12,12,1,Stimuli/testStimuliCube/6u_s_1_s.png,Stimuli/testStimuliCube/6u_s_1_s.png,0,9,,,,,,,,,s,3D
,,,,,,,19,female,A,2020-05-03_16h17.13.236,Remembering_Displays,2020.1.2,MacIntel,60,1,1,0.477235,9,1,0.566745,0,13,13,5,1,Stimuli/testStimuliCube/6u_s_3.png,Stimuli/testStimuliCube/6u_d_3.png,1,1,,,,,,,,,c,3D
,,,,,,,19,female,A,2020-05-03_16h17.13.236,Remembering_Displays,2020.1.2,MacIntel,60,1,1,0.45859,9,1,0.49593,0,14,14,13,1,Stimuli/testStimuliCube/6u_s_1_s.png,Stimuli/testStimuliCube/6u_d_1_s.png,1,1,,,,,,,,,s,3D
,,,,,,,19,female,A,2020-05-03_16h17.13.236,Remembering_Displays,2020.1.2,MacIntel,60,9,1,0.41743,9,0,1.0172,0,15,15,8,1,Stimuli/testStimuliCube/6u_s_5.png,Stimuli/testStimuliCube/6u_s_5.png,0,9,,,,,,,,,c,3D
,,,,,,,19,female,A,2020-05-03_16h17.13.236,Remembering_Displays,2020.1.2,MacIntel,60,9,1,0.88266,1,1,0.528675,0,16,16,4,1,Stimuli/testStimuliCube/6u_s_3.png,Stimuli/testStimuliCube/6u_s_3.png,0,9,,,,,,,,,c,3D
,,,,,,,19,female,A,2020-05-03_16h17.13.236,Remembering_Displays,2020.1.2,MacIntel,60,1,1,0.441275,1,1,0.64781,0,17,17,1,1,Stimuli/testStimuliCube/6u_s_1.png,Stimuli/testStimuliCube/6u_d_1.png,1,1,,,,,,,,,c,3D
,,,,,,,19,female,A,2020-05-03_16h17.13.236,Remembering_Displays,2020.1.2,MacIntel,60,1,1,0.63657,1,1,0.453475,0,18,18,19,1,Stimuli/testStimuliCube/6u_s_4_s.png,Stimuli/testStimuliCube/6u_d_4_s.png,1,1,,,,,,,,,s,3D
,,,,,,,19,female,A,2020-05-03_16h17.13.236,Remembering_Displays,2020.1.2,MacIntel,60,9,1,0.41631,9,1,0.26765,0,19,19,22,1,Stimuli/testStimuliCube/6u_s_6_s.png,Stimuli/testStimuliCube/6u_s_6_s.png,0,9,,,,,,,,,s,3D
,,,,,,,19,female,A,2020-05-03_16h17.13.236,Remembering_Displays,2020.1.2,MacIntel,60,1,1,0.59621,9,0,0.76439,0,20,20,15,1,Stimuli/testStimuliCube/6u_s_2_s.png,Stimuli/testStimuliCube/6u_d_2_s.png,1,1,,,,,,,,,s,3D
,,,,,,,19,female,A,2020-05-03_16h17.13.236,Remembering_Displays,2020.1.2,MacIntel,60,9,0,0.62264,1,1,0.75059,0,21,21,11,1,Stimuli/testStimuliCube/6u_s_6.png,Stimuli/testStimuliCube/6u_d_6.png,1,1,,,,,,,,,c,3D
,,,,,,,19,female,A,2020-05-03_16h17.13.236,Remembering_Displays,2020.1.2,MacIntel,60,9,1,0.681345,9,1,0.94449,0,22,22,2,1,Stimuli/testStimuliCube/6u_s_2.png,Stimuli/testStimuliCube/6u_s_2.png,0,9,,,,,,,,,c,3D
,,,,,,,19,female,A,2020-05-03_16h17.13.236,Remembering_Displays,2020.1.2,MacIntel,60,9,1,0.42594,9,1,0.87901,0,23,23,20,1,Stimuli/testStimuliCube/6u_s_5_s.png,Stimuli/testStimuliCube/6u_s_5_s.png,0,9,,,,,,,,,s,3D