instr_Loop.thisRepN,instr_Loop.thisTrialN,instr_Loop.thisN,instr_Loop.thisIndex,instr_Loop.ran,instructionImage,time,age,sex (female/male),order,date,expName,psychopyVersion,OS,frameRate,struc_judge_respond.keys,struc_judge_respond.corr,dual_respond.keys,dual_respond.corr,dual_respond.rt,trials.thisRepN,trials.thisTrialN,trials.thisN,trials.thisIndex,trials.ran,stim1,stim2,isAnyChange,corrAns,struc_judge_respond.rt,selectBlock.thisRepN,selectBlock.thisTrialN,selectBlock.thisN,selectBlock.thisIndex,selectBlock.ran,condsFile,condsImage,remaining,connected,dimensionality
0,0,0,0,1,Instructions/instr_1.png,5,18,female,B,2020-05-03_16h33.40.494,Remembering_Displays,2020.1.2,MacIntel,60,,,,,,,,,,,,,,,,,,,,,,,,,
0,1,1,1,1,Instructions/instr_2.png,3,18,female,B,2020-05-03_16h33.40.494,Remembering_Displays,2020.1.2,MacIntel,60,,,,,,,,,,,,,,,,,,,,,,,,,
0,2,2,2,1,Instructions/instr_3.png,5,18,female,B,2020-05-03_16h33.40.494,Remembering_Displays,2020.1.2,MacIntel,60,,,,,,,,,,,,,,,,,,,,,,,,,
0,3,3,3,1,Instructions/instr_4.png,1,18,female,B,2020-05-03_16h33.40.494,Remembering_Displays,2020.1.2,MacIntel,60,,,,,,,,,,,,,,,,,,,,,,,,,
0,4,4,4,1,Instructions/instr_5.png,1,18,female,B,2020-05-03_16h33.40.494,Remembering_Displays,2020.1.2,MacIntel,60,,,,,,,,,,,,,,,,,,,,,,,,,
0,5,5,5,1,Instructions/instr_6.png,1,18,female,B,2020-05-03_16h33.40.494,Remembering_Displays,2020.1.2,MacIntel,60,,,,,,,,,,,,,,,,,,,,,,,,,
0,6,6,6,1,Instructions/instr_7.png,1,18,female,B,2020-05-03_16h33.40.494,Remembering_Displays,2020.1.2,MacIntel,60,,,,,,,,,,,,,,,,,,,,,,,,,
0,7,7,7,1,Instructions/instr_8.png,3,18,female,B,2020-05-03_16h33.40.494,Remembering_Displays,2020.1.2,MacIntel,60,,,,,,,,,,,,,,,,,,,,,,,,,
0,8,8,8,1,Instructions/instr_9.png,3,18,female,B,2020-05-03_16h33.40.494,Remembering_Displays,2020.1.2,MacIntel,60,,,,,,,,,,,,,,,,,,,,,,,,,
0,9,9,9,1,Instructions/instr_10.png,3,18,female,B,2020-05-03_16h33.40.494,Remembering_Displays,2020.1.2,MacIntel,60,,,,,,,,,,,,,,,,,,,,,,,,,
0,10,10,10,1,Instructions/instr_11.png,3,18,female,B,2020-05-03_16h33.40.494,Remembering_Displays,2020.1.2,MacIntel,60,,,,,,,,,,,,,,,,,,,,,,,,,
0,11,11,11,1,Instructions/instr_12.png,3,18,female,B,2020-05-03_16h33.40.494,Remembering_Displays,2020.1.2,MacIntel,60,,,,,,,,,,,,,,,,,,,,,,,,,
0,12,12,12,1,Instructions/instr_13.png,3,18,female,B,2020-05-03_16h33.40.494,Remembering_Displays,2020.1.2,MacIntel,60,,,,,,,,,,,,,,,,,,,,,,,,,
0,13,13,13,1,Instructions/instr_14.png,3,18,female,B,2020-05-03_16h33.40.494,Remembering_Displays,2020.1.2,MacIntel,60,,,,,,,,,,,,,,,,,,,,,,,,,
0,14,14,14,1,Instructions/instr_15.png,3,18,female,B,2020-05-03_16h33.40.494,Remembering_Displays,2020.1.2,MacIntel,60,,,,,,,,,,,,,,,,,,,,,,,,,
0,15,15,15,1,Instructions/instr_16.png,5,18,female,B,2020-05-03_16h33.40.494,Remembering_Displays,2020.1.2,MacIntel,60,,,,,,,,,,,,,,,,,,,,,,,,,
,,,,,,,18,female,B,2020-05-03_16h33.40.494,Remembering_Displays,2020.1.2,MacIntel,60,,0,1,1,16.336865,0,0,0,3,1,Stimuli/practiceStimuliCube/practice4_s.png,Stimuli/practiceStimuliCube/practice4_d.png,1,1,,,,,,,,,,,
,,,,,,,18,female,B,2020-05-03_16h33.40.494,Remembering_Displays,2020.1.2,MacIntel,60,9,1,1,1,2.704385,0,1,1,0,1,Stimuli/practiceStimuliCube/practice1_s.png,Stimuli/practiceStimuliCube/practice1_s.png,0,9,0.971795,,,,,,,,,,
,,,,,,,18,female,B,2020-05-03_16h33.40.494,Remembering_Displays,2020.1.2,MacIntel,60,1,0,9,1,4.1874,0,2,2,2,1,Stimuli/practiceStimuliCube/practice3_s.png,Stimuli/practiceStimuliCube/practice3_s.png,0,9,1.38924,,,,,,,,,,
,,,,,,,18,female,B,2020-05-03_16h33.40.494,Remembering_Displays,2020.1.2,MacIntel,60,,0,9,1,1.387445,0,3,3,6,1,Stimuli/practiceStimuliCube/practice3_s.png,Stimuli/practiceStimuliCube/practice3_d.png,1,1,,,,,,,,,,,
,,,,,,,18,female,B,2020-05-03_16h33.40.494,Remembering_Displays,2020.1.2,MacIntel,60,,0,1,1,1.30391,0,4,4,7,1,Stimuli/practiceStimuliCube/practice4_s.png,Stimuli/practiceStimuliCube/practice4_s.png,0,9,,,,,,,,,,,
,,,,,,,18,female,B,2020-05-03_16h33.40.494,Remembering_Displays,2020.1.2,MacIntel,60,9,1,9,1,0.9347,0,5,5,5,1,Stimuli/practiceStimuliCube/practice2_s.png,Stimuli/practiceStimuliCube/practice2_s.png,0,9,0.331785,,,,,,,,,,
,,,,,,,18,female,B,2020-05-03_16h33.40.494,Remembering_Displays,2020.1.2,MacIntel,60,1,1,1,1,0.751615,0,6,6,4,1,Stimuli/practiceStimuliCube/practice1_s.png,Stimuli/practiceStimuliCube/practice1_d.png,1,1,0.506195,,,,,,,,,,
,,,,,,,18,female,B,2020-05-03_16h33.40.494,Remembering_Displays,2020.1.2,MacIntel,60,9,0,1,1,0.626645,0,7,7,1,1,Stimuli/practiceStimuliCube/practice2_s.png,Stimuli/practiceStimuliCube/practice2_d.png,1,1,0.633865,,,,,,,,,,
,,,,,,,18,female,B,2020-05-03_16h33.40.494,Remembering_Displays,2020.1.2,MacIntel,60,,,,,,,,,,,,,,,,0,0,0,0,1,Stimuli/practiceListCubes.xlsx,Instructions/instr_practice_B.png,Practice trials completed,,
,,,,,,,18,female,B,2020-05-03_16h33.40.494,Remembering_Displays,2020.1.2,MacIntel,60,9,1,1,0,1.35106,0,0,0,10,1,Stimuli/testStimuliCube/6u_s_6.png,Stimuli/testStimuliCube/6u_s_6.png,0,9,0.35641,,,,,,,,,c,3D
,,,,,,,18,female,B,2020-05-03_16h33.40.494,Remembering_Displays,2020.1.2,MacIntel,60,1,0,1,1,0.64958,0,1,1,22,1,Stimuli/testStimuliCube/6u_s_6_s.png,Stimuli/testStimuliCube/6u_s_6_s.png,0,9,0.8383,,,,,,,,,s,3D
,,,,,,,18,female,B,2020-05-03_16h33.40.494,Remembering_Displays,2020.1.2,MacIntel,60,9,1,1,1,0.75327,0,2,2,2,1,Stimuli/testStimuliCube/6u_s_2.png,Stimuli/testStimuliCube/6u_s_2.png,0,9,0.354865,,,,,,,,,c,3D
,,,,,,,18,female,B,2020-05-03_16h33.40.494,Remembering_Displays,2020.1.2,MacIntel,60,1,1,1,1,0.666515,0,3,3,7,1,Stimuli/testStimuliCube/6u_s_4.png,Stimuli/testStimuliCube/6u_d_4.png,1,1,0.57904,,,,,,,,,c,3D
,,,,,,,18,female,B,2020-05-03_16h33.40.494,Remembering_Displays,2020.1.2,MacIntel,60,1,1,9,1,1.2345,0,4,4,11,1,Stimuli/testStimuliCube/6u_s_6.png,Stimuli/testStimuliCube/6u_d_6.png,1,1,0.75402,,,,,,,,,c,3D
,,,,,,,18,female,B,2020-05-03_16h33.40.494,Remembering_Displays,2020.1.2,MacIntel,60,1,1,9,1,1.04062,0,5,5,3,1,Stimuli/testStimuliCube/6u_s_2.png,Stimuli/testStimuliCube/6u_d_2.png,1,1,0.65141,,,,,,,,,c,3D
,,,,,,,18,female,B,2020-05-03_16h33.40.494,Remembering_Displays,2020.1.2,MacIntel,60,9,1,1,1,0.73847,0,6,6,18,1,Stimuli/testStimuliCube/6u_s_4_s.png,Stimuli/testStimuliCube/6u_s_4_s.png,0,9,0.55317,,,,,,,,,s,3D
,,,,,,,18,female,B,2020-05-03_16h33.40.494,Remembering_Displays,2020.1.2,MacIntel,60,1,1,9,1,1.034495,0,7,7,23,1,Stimuli/testStimuliCube/6u_s_6_s.png,Stimuli/testStimuliCube/6u_d_6_s.png,1,1,0.678275,,,,,,,,,s,3D
,,,,,,,18,female,B,2020-05-03_16h33.40.494,Remembering_Displays,2020.1.2,MacIntel,60,1,1,1,1,1.069165,0,8,8,17,1,Stimuli/testStimuliCube/6u_s_3_s.png,Stimuli/testStimuliCube/6u_d_3_s.png,1,1,0.698555,,,,,,,,,s,3D
,,,,,,,18,female,B,2020-05-03_16h33.40.494,Remembering_Displays,2020.1.2,MacIntel,60,1,1,1,1,1.15326,0,9,9,9,1,Stimuli/testStimuliCube/6u_s_5.png,Stimuli/testStimuliCube/6u_d_5.png,1,1,0.509855,,,,,,,,,c,3D
,,,,,,,18,female,B,2020-05-03_16h33.40.494,Remembering_Displays,2020.1.2,MacIntel,60,1,1,1,1,0.474255,0,10,10,21,1,Stimuli/testStimuliCube/6u_s_5_s.png,Stimuli/testStimuliCube/6u_d_5_s.png,1,1,1.321025,,,,,,,,,s,3D
,,,,,,,18,female,B,2020-05-03_16h33.40.494,Remembering_Displays,2020.1.2,MacIntel,60,9,1,9,1,1.4666,0,11,11,0,1,Stimuli/testStimuliCube/6u_s_1.png,Stimuli/testStimuliCube/6u_s_1.png,0,9,0.98883,,,,,,,,,c,3D
,,,,,,,18,female,B,2020-05-03_16h33.40.494,Remembering_Displays,2020.1.2,MacIntel,60,,0,1,1,1.24047,0,12,12,8,1,Stimuli/testStimuliCube/6u_s_5.png,Stimuli/testStimuliCube/6u_s_5.png,0,9,,,,,,,,,,c,3D
,,,,,,,18,female,B,2020-05-03_16h33.40.494,Remembering_Displays,2020.1.2,MacIntel,60,1,1,9,1,0.8601,0,13,13,19,1,Stimuli/testStimuliCube/6u_s_4_s.png,Stimuli/testStimuliCube/6u_d_4_s.png,1,1,0.676695,,,,,,,,,s,3D
,,,,,,,18,female,B,2020-05-03_16h33.40.494,Remembering_Displays,2020.1.2,MacIntel,60,1,1,1,1,1.02331,0,14,14,1,1,Stimuli/testStimuliCube/6u_s_1.png,Stimuli/testStimuliCube/6u_d_1.png,1,1,0.465345,,,,,,,,,c,3D
,,,,,,,18,female,B,2020-05-03_16h33.40.494,Remembering_Displays,2020.1.2,MacIntel,60,1,1,1,1,1.64193,0,15,15,5,1,Stimuli/testStimuliCube/6u_s_3.png,Stimuli/testStimuliCube/6u_d_3.png,1,1,0.70928,,,,,,,,,c,3D
,,,,,,,18,female,B,2020-05-03_16h33.40.494,Remembering_Displays,2020.1.2,MacIntel,60,9,1,9,1,0.774115,0,16,16,12,1,Stimuli/testStimuliCube/6u_s_1_s.png,Stimuli/testStimuliCube/6u_s_1_s.png,0,9,0.941595,,,,,,,,,s,3D
,,,,,,,18,female,B,2020-05-03_16h33.40.494,Remembering_Displays,2020.1.2,MacIntel,60,9,1,1,1,0.51776,0,17,17,4,1,Stimuli/testStimuliCube/6u_s_3.png,Stimuli/testStimuliCube/6u_s_3.png,0,9,0.98929,,,,,,,,,c,3D
,,,,,,,18,female,B,2020-05-03_16h33.40.494,Remembering_Displays,2020.1.2,MacIntel,60,9,1,1,1,0.823245,0,18,18,14,1,Stimuli/testStimuliCube/6u_s_2_s.png,Stimuli/testStimuliCube/6u_s_2_s.png,0,9,0.839355,,,,,,,,,s,3D
,,,,,,,18,female,B,2020-05-03_16h33.40.494,Remembering_Displays,2020.1.2,MacIntel,60,1,1,1,1,0.730525,0,19,19,15,1,Stimuli/testStimuliCube/6u_s_2_s.png,Stimuli/testStimuliCube/6u_d_2_s.png,1,1,0.812765,,,,,,,,,s,3D
,,,,,,,18,female,B,2020-05-03_16h33.40.494,Remembering_Displays,2020.1.2,MacIntel,60,1,1,1,1,1.396145,0,20,20,13,1,Stimuli/testStimuliCube/6u_s_1_s.png,Stimuli/testStimuliCube/6u_d_1_s.png,1,1,0.55358,,,,,,,,,s,3D
,,,,,,,18,female,B,2020-05-03_16h33.40.494,Remembering_Displays,2020.1.2,MacIntel,60,1,0,1,1,0.821555,0,21,21,20,1,Stimuli/testStimuliCube/6u_s_5_s.png,Stimuli/testStimuliCube/6u_s_5_s.png,0,9,0.56219,,,,,,,,,s,3D
,,,,,,,18,female,B,2020-05-03_16h33.40.494,Remembering_Displays,2020.1.2,MacIntel,60,9,1,1,0,1.032935,0,22,22,6,1,Stimuli/testStimuliCube/6u_s_4.png,Stimuli/testStimuliCube/6u_s_4.png,0,9,1.006365,,,,,,,,,c,3D
,,,,,,,18,female,B,2020-05-03_16h33.40.494,Remembering_Displays,2020.1.2,MacIntel,60,9,1,9,1,1.257395,0,23,23,16,1,Stimuli/testStimuliCube/6u_s_3_s.png,Stimuli/testStimuliCube/6u_s_3_s.png,0,9,0.97344,,,,,,,,,s,3D
,,,,,,,18,female,B,2020-05-03_16h33.40.494,Remembering_Displays,2020.1.2,MacIntel,60,,,,,,,,,,,,,,,,0,1,1,1,1,Stimuli/trialListCubes1.xlsx,Instructions/instr_19.png,Progress: 24 of 192 trials completed,,
,,,,,,,18,female,B,2020-05-03_16h33.40.494,Remembering_Displays,2020.1.2,MacIntel,60,9,1,1,0,1.03348,0,0,0,7,1,Stimuli/practiceStimuliSquare/practice4_s.png,Stimuli/practiceStimuliSquare/practice4_s.png,0,9,0.56067,,,,,,,,,,
,,,,,,,18,female,B,2020-05-03_16h33.40.494,Remembering_Displays,2020.1.2,MacIntel,60,9,1,1,1,0.55016,0,1,1,0,1,Stimuli/practiceStimuliSquare/practice1_s.png,Stimuli/practiceStimuliSquare/practice1_s.png,0,9,0.821795,,,,,,,,,,
,,,,,,,18,female,B,2020-05-03_16h33.40.494,Remembering_Displays,2020.1.2,MacIntel,60,9,1,9,1,1.122895,0,2,2,5,1,Stimuli/practiceStimuliSquare/practice2_s.png,Stimuli/practiceStimuliSquare/practice2_s.png,0,9,0.60964,,,,,,,,,,
,,,,,,,18,female,B,2020-05-03_16h33.40.494,Remembering_Displays,2020.1.2,MacIntel,60,1,1,9,1,0.765815,0,3,3,6,1,Stimuli/practiceStimuliSquare/practice3_s.png,Stimuli/practiceStimuliSquare/practice3_d.png,1,1,0.68509,,,,,,,,,,
,,,,,,,18,female,B,2020-05-03_16h33.40.494,Remembering_Displays,2020.1.2,MacIntel,60,1,1,9,1,0.991015,0,4,4,1,1,Stimuli/practiceStimuliSquare/practice2_s.png,Stimuli/practiceStimuliSquare/practice2_d.png,1,1,0.706835,,,,,,,,,,
,,,,,,,18,female,B,2020-05-03_16h33.40.494,Remembering_Displays,2020.1.2,MacIntel,60,1,1,1,0,2.227235,0,5,5,4,1,Stimuli/practiceStimuliSquare/practice1_s.png,Stimuli/practiceStimuliSquare/practice1_d.png,1,1,0.79727,,,,,,,,,,
,,,,,,,18,female,B,2020-05-03_16h33.40.494,Remembering_Displays,2020.1.2,MacIntel,60,,0,9,1,6.967295,0,6,6,3,1,Stimuli/practiceStimuliSquare/practice4_s.png,Stimuli/practiceStimuliSquare/practice4_d.png,1,1,,,,,,,,,,,
,,,,,,,18,female,B,2020-05-03_16h33.40.494,Remembering_Displays,2020.1.2,MacIntel,60,9,1,9,1,1.8079,0,7,7,2,1,Stimuli/practiceStimuliSquare/practice3_s.png,Stimuli/practiceStimuliSquare/practice3_s.png,0,9,0.77205,,,,,,,,,,
,,,,,,,18,female,B,2020-05-03_16h33.40.494,Remembering_Displays,2020.1.2,MacIntel,60,,,,,,,,,,,,,,,,0,2,2,2,1,Stimuli/practiceListSquares.xlsx,Instructions/instr_practice_A.png,Practice trials completed,,
,,,,,,,18,female,B,2020-05-03_16h33.40.494,Remembering_Displays,2020.1.2,MacIntel,60,1,1,1,1,0.73949,0,0,0,23,1,Stimuli/testStimuliSquare/6u_s_24_s_2D.png,Stimuli/testStimuliSquare/6u_d_24_s_2D.png,1,1,0.66663,,,,,,,,,s,2D
,,,,,,,18,female,B,2020-05-03_16h33.40.494,Remembering_Displays,2020.1.2,MacIntel,60,9,1,1,1,0.832495,0,1,1,2,1,Stimuli/testStimuliSquare/6u_s_20_2D.png,Stimuli/testStimuliSquare/6u_s_20_2D.png,0,9,0.65432,,,,,,,,,c,2D
,,,,,,,18,female,B,2020-05-03_16h33.40.494,Remembering_Displays,2020.1.2,MacIntel,60,1,1,9,1,3.15154,0,2,2,17,1,Stimuli/testStimuliSquare/6u_s_21_s_2D.png,Stimuli/testStimuliSquare/6u_d_21_s_2D.png,1,1,0.59437,,,,,,,,,s,2D
,,,,,,,18,female,B,2020-05-03_16h33.40.494,Remembering_Displays,2020.1.2,MacIntel,60,9,1,1,1,0.9187,0,3,3,4,1,Stimuli/testStimuliSquare/6u_s_21_2D.png,Stimuli/testStimuliSquare/6u_s_21_2D.png,0,9,0.753085,,,,,,,,,c,2D
,,,,,,,18,female,B,2020-05-03_16h33.40.494,Remembering_Displays,2020.1.2,MacIntel,60,9,1,9,1,1.301865,0,4,4,14,1,Stimuli/testStimuliSquare/6u_s_20_s_2D.png,Stimuli/testStimuliSquare/6u_s_20_s_2D.png,0,9,0.851565,,,,,,,,,s,2D
,,,,,,,18,female,B,2020-05-03_16h33.40.494,Remembering_Displays,2020.1.2,MacIntel,60,1,1,9,0,0.802165,0,5,5,9,1,Stimuli/testStimuliSquare/6u_s_23_2D.png,Stimuli/testStimuliSquare/6u_d_23_2D.png,1,1,1.243895,,,,,,,,,c,2D
,,,,,,,18,female,B,2020-05-03_16h33.40.494,Remembering_Displays,2020.1.2,MacIntel,60,,0,1,1,1.03477,0,6,6,0,1,Stimuli/testStimuliSquare/6u_s_19_2D.png,Stimuli/testStimuliSquare/6u_s_19_2D.png,0,9,,,,,,,,,,c,2D
,,,,,,,18,female,B,2020-05-03_16h33.40.494,Remembering_Displays,2020.1.2,MacIntel,60,,0,1,1,2.08305,0,7,7,16,1,Stimuli/testStimuliSquare/6u_s_21_s_2D.png,Stimuli/testStimuliSquare/6u_s_21_s_2D.png,0,9,,,,,,,,,,s,2D
,,,,,,,18,female,B,2020-05-03_16h33.40.494,Remembering_Displays,2020.1.2,MacIntel,60,1,1,1,1,1.53341,0,8,8,19,1,Stimuli/testStimuliSquare/6u_s_22_s_2D.png,Stimuli/testStimuliSquare/6u_d_22_s_2D.png,1,1,0.615855,,,,,,,,,s,2D
,,,,,,,18,female,B,2020-05-03_16h33.40.494,Remembering_Displays,2020.1.2,MacIntel,60,1,1,1,1,0.957485,0,9,9,15,1,Stimuli/testStimuliSquare/6u_s_20_s_2D.png,Stimuli/testStimuliSquare/6u_d_20_s_2D.png,1,1,0.647265,,,,,,,,,s,2D
,,,,,,,18,female,B,2020-05-03_16h33.40.494,Remembering_Displays,2020.1.2,MacIntel,60,,0,9,1,3.534635,0,10,10,20,1,Stimuli/testStimuliSquare/6u_s_23_s_2D.png,Stimuli/testStimuliSquare/6u_s_23_s_2D.png,0,9,,,,,,,,,,s,2D
,,,,,,,18,female,B,2020-05-03_16h33.40.494,Remembering_Displays,2020.1.2,MacIntel,60,1,1,1,1,0.95056,0,11,11,1,1,Stimuli/testStimuliSquare/6u_s_19_2D.png,Stimuli/testStimuliSquare/6u_d_19_2D.png,1,1,0.607835,,,,,,,,,c,2D
,,,,,,,18,female,B,2020-05-03_16h33.40.494,Remembering_Displays,2020.1.2,MacIntel,60,1,0,1,1,1.474165,0,12,12,18,1,Stimuli/testStimuliSquare/6u_s_22_s_2D.png,Stimuli/testStimuliSquare/6u_s_22_s_2D.png,0,9,0.724945,,,,,,,,,s,2D
,,,,,,,18,female,B,2020-05-03_16h33.40.494,Remembering_Displays,2020.1.2,MacIntel,60,1,1,1,1,1.452675,0,13,13,5,1,Stimuli/testStimuliSquare/6u_s_21_2D.png,Stimuli/testStimuliSquare/6u_d_21_2D.png,1,1,0.93996,,,,,,,,,c,2D
,,,,,,,18,female,B,2020-05-03_16h33.40.494,Remembering_Displays,2020.1.2,MacIntel,60,9,1,1,1,1.253325,0,14,14,12,1,Stimuli/testStimuliSquare/6u_s_19_s_2D.png,Stimuli/testStimuliSquare/6u_s_19_s_2D.png,0,9,1.022775,,,,,,,,,s,2D
,,,,,,,18,female,B,2020-05-03_16h33.40.494,Remembering_Displays,2020.1.2,MacIntel,60,9,1,9,1,0.971505,0,15,15,6,1,Stimuli/testStimuliSquare/6u_s_22_2D.png,Stimuli/testStimuliSquare/6u_s_22_2D.png,0,9,1.01158,,,,,,,,,c,2D
,,,,,,,18,female,B,2020-05-03_16h33.40.494,Remembering_Displays,2020.1.2,MacIntel,60,1,1,1,1,0.71655,0,16,16,3,1,Stimuli/testStimuliSquare/6u_s_20_2D.png,Stimuli/testStimuliSquare/6u_d_20_2D.png,1,1,0.665865,,,,,,,,,c,2D
,,,,,,,18,female,B,2020-05-03_16h33.40.494,Remembering_Displays,2020.1.2,MacIntel,60,9,1,9,1,1.45178,0,17,17,22,1,Stimuli/testStimuliSquare/6u_s_24_s_2D.png,Stimuli/testStimuliSquare/6u_s_24_s_2D.png,0,9,1.4286,,,,,,,,,s,2D
,,,,,,,18,female,B,2020-05-03_16h33.40.494,Remembering_Displays,2020.1.2,MacIntel,60,1,1,1,1,1.307155,0,18,18,13,1,Stimuli/testStimuliSquare/6u_s_19_s_2D.png,Stimuli/testStimuliSquare/6u_d_19_s_2D.png,1,1,0.695165,,,,,,,,,s,2D
,,,,,,,18,female,B,2020-05-03_16h33.40.494,Remembering_Displays,2020.1.2,MacIntel,60,9,1,1,1,1.45832,0,19,19,10,1,Stimuli/testStimuliSquare/6u_s_24_2D.png,Stimuli/testStimuliSquare/6u_s_24_2D.png,0,9,0.90678,,,,,,,,,c,2D
,,,,,,,18,female,B,2020-05-03_16h33.40.494,Remembering_Displays,2020.1.2,MacIntel,60,1,1,9,1,0.90373,0,20,20,7,1,Stimuli/testStimuliSquare/6u_s_22_2D.png,Stimuli/testStimuliSquare/6u_d_22_2D.png,1,1,0.66125,,,,,,,,,c,2D
,,,,,,,18,female,B,2020-05-03_16h33.40.494,Remembering_Displays,2020.1.2,MacIntel,60,,0,9,1,1.898985,0,21,21,21,1,Stimuli/testStimuliSquare/6u_s_23_s_2D.png,Stimuli/testStimuliSquare/6u_d_23_s_2D.png,1,1,,,,,,,,,,s,2D
,,,,,,,18,female,B,2020-05-03_16h33.40.494,Remembering_Displays,2020.1.2,MacIntel,60,9,0,1,1,1.806995,0,22,22,11,1,Stimuli/testStimuliSquare/6u_s_24_2D.png,Stimuli/testStimuliSquare/6u_d_24_2D.png,1,1,1.103455,,,,,,,,,c,2D
,,,,,,,18,female,B,2020-05-03_16h33.40.494,Remembering_Displays,2020.1.2,MacIntel,60,,0,1,0,1.254595,0,23,23,8,1,Stimuli/testStimuliSquare/6u_s_23_2D.png,Stimuli/testStimuliSquare/6u_s_23_2D.png,0,9,,,,,,,,,,c,2D
,,,,,,,18,female,B,2020-05-03_16h33.40.494,Remembering_Displays,2020.1.2,MacIntel,60,,,,,,,,,,,,,,,,0,3,3,3,1,Stimuli/trialListSquares4.xlsx,Instructions/instr_18.png,Progress: 48 of 192 trials completed,,
,,,,,,,18,female,B,2020-05-03_16h33.40.494,Remembering_Displays,2020.1.2,MacIntel,60,1,1,1,1,0.702925,0,0,0,3,1,Stimuli/testStimuliCube/6u_s_8.png,Stimuli/testStimuliCube/6u_d_8.png,1,1,0.84563,,,,,,,,,c,3D
,,,,,,,18,female,B,2020-05-03_16h33.40.494,Remembering_Displays,2020.1.2,MacIntel,60,9,1,1,1,0.547815,0,1,1,8,1,Stimuli/testStimuliCube/6u_s_11.png,Stimuli/testStimuliCube/6u_s_11.png,0,9,1.42177,,,,,,,,,c,3D
,,,,,,,18,female,B,2020-05-03_16h33.40.494,Remembering_Displays,2020.1.2,MacIntel,60,1,1,1,1,0.418845,0,2,2,17,1,Stimuli/testStimuliCube/6u_s_9_s.png,Stimuli/testStimuliCube/6u_d_9_s.png,1,1,0.69149,,,,,,,,,s,3D
,,,,,,,18,female,B,2020-05-03_16h33.40.494,Remembering_Displays,2020.1.2,MacIntel,60,1,1,9,1,0.732725,0,3,3,9,1,Stimuli/testStimuliCube/6u_s_11.png,Stimuli/testStimuliCube/6u_d_11.png,1,1,0.6687,,,,,,,,,c,3D
,,,,,,,18,female,B,2020-05-03_16h33.40.494,Remembering_Displays,2020.1.2,MacIntel,60,9,1,1,1,0.95074,0,4,4,16,1,Stimuli/testStimuliCube/6u_s_9_s.png,Stimuli/testStimuliCube/6u_s_9_s.png,0,9,0.818435,,,,,,,,,s,3D
,,,,,,,18,female,B,2020-05-03_16h33.40.494,Remembering_Displays,2020.1.2,MacIntel,60,1,1,1,1,1.00877,0,5,5,7,1,Stimuli/testStimuliCube/6u_s_10.png,Stimuli/testStimuliCube/6u_d_10.png,1,1,1.118765,,,,,,,,,c,3D
,,,,,,,18,female,B,2020-05-03_16h33.40.494,Remembering_Displays,2020.1.2,MacIntel,60,9,1,1,1,0.766245,0,6,6,2,1,Stimuli/testStimuliCube/6u_s_8.png,Stimuli/testStimuliCube/6u_s_8.png,0,9,1.00101,,,,,,,,,c,3D
,,,,,,,18,female,B,2020-05-03_16h33.40.494,Remembering_Displays,2020.1.2,MacIntel,60,1,1,1,0,2.09012,0,7,7,11,1,Stimuli/testStimuliCube/6u_s_12.png,Stimuli/testStimuliCube/6u_d_12.png,1,1,0.623525,,,,,,,,,c,3D
,,,,,,,18,female,B,2020-05-03_16h33.40.494,Remembering_Displays,2020.1.2,MacIntel,60,9,1,9,1,1.24166,0,8,8,0,1,Stimuli/testStimuliCube/6u_s_7.png,Stimuli/testStimuliCube/6u_s_7.png,0,9,0.844545,,,,,,,,,c,3D
,,,,,,,18,female,B,2020-05-03_16h33.40.494,Remembering_Displays,2020.1.2,MacIntel,60,9,1,1,1,0.55747,0,9,9,14,1,Stimuli/testStimuliCube/6u_s_8_s.png,Stimuli/testStimuliCube/6u_s_8_s.png,0,9,0.9639,,,,,,,,,s,3D
,,,,,,,18,female,B,2020-05-03_16h33.40.494,Remembering_Displays,2020.1.2,MacIntel,60,1,1,9,1,0.992165,0,10,10,1,1,Stimuli/testStimuliCube/6u_s_7.png,Stimuli/testStimuliCube/6u_d_7.png,1,1,0.8173,,,,,,,,,c,3D
,,,,,,,18,female,B,2020-05-03_16h33.40.494,Remembering_Displays,2020.1.2,MacIntel,60,1,1,1,1,0.56169,0,11,11,23,1,Stimuli/testStimuliCube/6u_s_12_s.png,Stimuli/testStimuliCube/6u_d_12_s.png,1,1,0.923245,,,,,,,,,s,3D
,,,,,,,18,female,B,2020-05-03_16h33.40.494,Remembering_Displays,2020.1.2,MacIntel,60,9,0,9,1,2.600875,0,12,12,15,1,Stimuli/testStimuliCube/6u_s_8_s.png,Stimuli/testStimuliCube/6u_d_8_s.png,1,1,1.38069,,,,,,,,,s,3D
,,,,,,,18,female,B,2020-05-03_16h33.40.494,Remembering_Displays,2020.1.2,MacIntel,60,9,0,1,1,2.62365,0,13,13,19,1,Stimuli/testStimuliCube/6u_s_10_s.png,Stimuli/testStimuliCube/6u_d_10_s.png,1,1,1.30206,,,,,,,,,s,3D
,,,,,,,18,female,B,2020-05-03_16h33.40.494,Remembering_Displays,2020.1.2,MacIntel,60,9,1,1,1,1.60424,0,14,14,22,1,Stimuli/testStimuliCube/6u_s_12_s.png,Stimuli/testStimuliCube/6u_s_12_s.png,0,9,0.976225,,,,,,,,,s,3D
,,,,,,,18,female,B,2020-05-03_16h33.40.494,Remembering_Displays,2020.1.2,MacIntel,60,,0,1,1,1.407545,0,15,15,20,1,Stimuli/testStimuliCube/6u_s_11_s.png,Stimuli/testStimuliCube/6u_s_11_s.png,0,9,,,,,,,,,,s,3D
,,,,,,,18,female,B,2020-05-03_16h33.40.494,Remembering_Displays,2020.1.2,MacIntel,60,1,1,9,1,1.15503,0,16,16,13,1,Stimuli/testStimuliCube/6u_s_7_s.png,Stimuli/testStimuliCube/6u_d_7_s.png,1,1,0.66094,,,,,,,,,s,3D
,,,,,,,18,female,B,2020-05-03_16h33.40.494,Remembering_Displays,2020.1.2,MacIntel,60,1,1,1,0,0.96879,0,17,17,21,1,Stimuli/testStimuliCube/6u_s_11_s.png,Stimuli/testStimuliCube/6u_d_11_s.png,1,1,1.22828,,,,,,,,,s,3D
,,,,,,,18,female,B,2020-05-03_16h33.40.494,Remembering_Displays,2020.1.2,MacIntel,60,9,1,1,1,0.74746,0,18,18,6,1,Stimuli/testStimuliCube/6u_s_10.png,Stimuli/testStimuliCube/6u_s_10.png,0,9,1.30765,,,,,,,,,c,3D
,,,,,,,18,female,B,2020-05-03_16h33.40.494,Remembering_Displays,2020.1.2,MacIntel,60,9,1,1,1,0.766585,0,19,19,12,1,Stimuli/testStimuliCube/6u_s_7_s.png,Stimuli/testStimuliCube/6u_s_7_s.png,0,9,1.04094,,,,,,,,,s,3D
,,,,,,,18,female,B,2020-05-03_16h33.40.494,Remembering_Displays,2020.1.2,MacIntel,60,9,1,1,1,0.89003,0,20,20,10,1,Stimuli/testStimuliCube/6u_s_12.png,Stimuli/testStimuliCube/6u_s_12.png,0,9,0.608515,,,,,,,,,c,3D
,,,,,,,18,female,B,2020-05-03_16h33.40.494,Remembering_Displays,2020.1.2,MacIntel,60,9,1,9,1,0.652975,0,21,21,18,1,Stimuli/testStimuliCube/6u_s_10_s.png,Stimuli/testStimuliCube/6u_s_10_s.png,0,9,0.58942,,,,,,,,,s,3D
,,,,,,,18,female,B,2020-05-03_16h33.40.494,Remembering_Displays,2020.1.2,MacIntel,60,9,1,9,1,1.206575,0,22,22,4,1,Stimuli/testStimuliCube/6u_s_9.png,Stimuli/testStimuliCube/6u_s_9.png,0,9,0.488215,,,,,,,,,c,3D
,,,,,,,18,female,B,2020-05-03_16h33.40.494,Remembering_Displays,2020.1.2,MacIntel,60,1,1,1,1,0.606415,0,23,23,5,1,Stimuli/testStimuliCube/6u_s_9.png,Stimuli/testStimuliCube/6u_d_9.png,1,1,0.552555,,,,,,,,,c,3D
,,,,,,,18,female,B,2020-05-03_16h33.40.494,Remembering_Displays,2020.1.2,MacIntel,60,,,,,,,,,,,,,,,,0,4,4,4,1,Stimuli/trialListCubes2.xlsx,Instructions/instr_19.png,Progress: 72 of 192 trials completed,,
,,,,,,,18,female,B,2020-05-03_16h33.40.494,Remembering_Displays,2020.1.2,MacIntel,60,9,1,9,1,1.837395,0,0,0,8,1,Stimuli/testStimuliSquare/6u_s_17_2D.png,Stimuli/testStimuliSquare/6u_s_17_2D.png,0,9,0.510175,,,,,,,,,c,2D
,,,,,,,18,female,B,2020-05-03_16h33.40.494,Remembering_Displays,2020.1.2,MacIntel,60,1,1,1,1,2.51786,0,1,1,5,1,Stimuli/testStimuliSquare/6u_s_15_2D.png,Stimuli/testStimuliSquare/6u_d_15_2D.png,1,1,0.486265,,,,,,,,,c,2D
,,,,,,,18,female,B,2020-05-03_16h33.40.494,Remembering_Displays,2020.1.2,MacIntel,60,9,1,1,1,0.486305,0,2,2,14,1,Stimuli/testStimuliSquare/6u_s_14_s_2D.png,Stimuli/testStimuliSquare/6u_s_14_s_2D.png,0,9,1.050595,,,,,,,,,s,2D
,,,,,,,18,female,B,2020-05-03_16h33.40.494,Remembering_Displays,2020.1.2,MacIntel,60,1,1,1,1,0.98395,0,3,3,9,1,Stimuli/testStimuliSquare/6u_s_17_2D.png,Stimuli/testStimuliSquare/6u_d_17_2D.png,1,1,0.636745,,,,,,,,,c,2D
,,,,,,,18,female,B,2020-05-03_16h33.40.494,Remembering_Displays,2020.1.2,MacIntel,60,,0,1,1,8.6217,0,4,4,4,1,Stimuli/testStimuliSquare/6u_s_15_2D.png,Stimuli/testStimuliSquare/6u_s_15_2D.png,0,9,,,,,,,,,,c,2D
,,,,,,,18,female,B,2020-05-03_16h33.40.494,Remembering_Displays,2020.1.2,MacIntel,60,9,1,9,1,0.813855,0,5,5,18,1,Stimuli/testStimuliSquare/6u_s_16_s_2D.png,Stimuli/testStimuliSquare/6u_s_16_s_2D.png,0,9,0.619215,,,,,,,,,s,2D
,,,,,,,18,female,B,2020-05-03_16h33.40.494,Remembering_Displays,2020.1.2,MacIntel,60,1,1,1,1,0.71411,0,6,6,17,1,Stimuli/testStimuliSquare/6u_s_15_s_2D.png,Stimuli/testStimuliSquare/6u_d_15_s_2D.png,1,1,0.59104,,,,,,,,,s,2D
,,,,,,,18,female,B,2020-05-03_16h33.40.494,Remembering_Displays,2020.1.2,MacIntel,60,9,1,9,1,0.86986,0,7,7,2,1,Stimuli/testStimuliSquare/6u_s_14_2D.png,Stimuli/testStimuliSquare/6u_s_14_2D.png,0,9,0.756095,,,,,,,,,c,2D
,,,,,,,18,female,B,2020-05-03_16h33.40.494,Remembering_Displays,2020.1.2,MacIntel,60,1,1,9,0,1.15436,0,8,8,11,1,Stimuli/testStimuliSquare/6u_s_18_2D.png,Stimuli/testStimuliSquare/6u_d_18_2D.png,1,1,0.878685,,,,,,,,,c,2D
,,,,,,,18,female,B,2020-05-03_16h33.40.494,Remembering_Displays,2020.1.2,MacIntel,60,1,1,1,1,4.352975,0,9,9,21,1,Stimuli/testStimuliSquare/6u_s_17_s_2D.png,Stimuli/testStimuliSquare/6u_d_17_s_2D.png,1,1,1.402915,,,,,,,,,s,2D
,,,,,,,18,female,B,2020-05-03_16h33.40.494,Remembering_Displays,2020.1.2,MacIntel,60,9,1,1,1,0.48388,0,10,10,10,1,Stimuli/testStimuliSquare/6u_s_18_2D.png,Stimuli/testStimuliSquare/6u_s_18_2D.png,0,9,0.61076,,,,,,,,,c,2D
,,,,,,,18,female,B,2020-05-03_16h33.40.494,Remembering_Displays,2020.1.2,MacIntel,60,9,1,1,1,0.822535,0,11,11,0,1,Stimuli/testStimuliSquare/6u_s_13_2D.png,Stimuli/testStimuliSquare/6u_s_13_2D.png,0,9,0.676335,,,,,,,,,c,2D
,,,,,,,18,female,B,2020-05-03_16h33.40.494,Remembering_Displays,2020.1.2,MacIntel,60,9,0,1,1,1.618335,0,12,12,13,1,Stimuli/testStimuliSquare/6u_s_13_s_2D.png,Stimuli/testStimuliSquare/6u_d_13_s_2D.png,1,1,1.07857,,,,,,,,,s,2D
,,,,,,,18,female,B,2020-05-03_16h33.40.494,Remembering_Displays,2020.1.2,MacIntel,60,9,1,1,1,0.450245,0,13,13,22,1,Stimuli/testStimuliSquare/6u_s_18_s_2D.png,Stimuli/testStimuliSquare/6u_s_18_s_2D.png,0,9,0.797075,,,,,,,,,s,2D
,,,,,,,18,female,B,2020-05-03_16h33.40.494,Remembering_Displays,2020.1.2,MacIntel,60,9,1,1,1,0.466535,0,14,14,16,1,Stimuli/testStimuliSquare/6u_s_15_s_2D.png,Stimuli/testStimuliSquare/6u_s_15_s_2D.png,0,9,0.8923,,,,,,,,,s,2D
,,,,,,,18,female,B,2020-05-03_16h33.40.494,Remembering_Displays,2020.1.2,MacIntel,60,1,1,9,1,1.202135,0,15,15,23,1,Stimuli/testStimuliSquare/6u_s_18_s_2D.png,Stimuli/testStimuliSquare/6u_d_18_s_2D.png,1,1,0.8113,,,,,,,,,s,2D
,,,,,,,18,female,B,2020-05-03_16h33.40.494,Remembering_Displays,2020.1.2,MacIntel,60,9,0,1,1,1.021185,0,16,16,1,1,Stimuli/testStimuliSquare/6u_s_13_2D.png,Stimuli/testStimuliSquare/6u_d_13_2D.png,1,1,0.79591,,,,,,,,,c,2D
,,,,,,,18,female,B,2020-05-03_16h33.40.494,Remembering_Displays,2020.1.2,MacIntel,60,9,1,9,1,1.640685,0,17,17,20,1,Stimuli/testStimuliSquare/6u_s_17_s_2D.png,Stimuli/testStimuliSquare/6u_s_17_s_2D.png,0,9,0.783425,,,,,,,,,s,2D
,,,,,,,18,female,B,2020-05-03_16h33.40.494,Remembering_Displays,2020.1.2,MacIntel,60,1,1,9,1,1.93777,0,18,18,19,1,Stimuli/testStimuliSquare/6u_s_16_s_2D.png,Stimuli/testStimuliSquare/6u_d_16_s_2D.png,1,1,0.69441,,,,,,,,,s,2D
,,,,,,,18,female,B,2020-05-03_16h33.40.494,Remembering_Displays,2020.1.2,MacIntel,60,9,1,1,1,0.484725,0,19,19,6,1,Stimuli/testStimuliSquare/6u_s_16_2D.png,Stimuli/testStimuliSquare/6u_s_16_2D.png,0,9,0.82111,,,,,,,,,c,2D
,,,,,,,18,female,B,2020-05-03_16h33.40.494,Remembering_Displays,2020.1.2,MacIntel,60,1,1,9,0,1.07039,0,20,20,7,1,Stimuli/testStimuliSquare/6u_s_16_2D.png,Stimuli/testStimuliSquare/6u_d_16_2D.png,1,1,0.48526,,,,,,,,,c,2D
,,,,,,,18,female,B,2020-05-03_16h33.40.494,Remembering_Displays,2020.1.2,MacIntel,60,,0,1,0,2.17108,0,21,21,12,1,Stimuli/testStimuliSquare/6u_s_13_s_2D.png,Stimuli/testStimuliSquare/6u_s_13_s_2D.png,0,9,,,,,,,,,,s,2D
,,,,,,,18,female,B,2020-05-03_16h33.40.494,Remembering_Displays,2020.1.2,MacIntel,60,1,1,9,1,2.24973,0,22,22,3,1,Stimuli/testStimuliSquare/6u_s_14_2D.png,Stimuli/testStimuliSquare/6u_d_14_2D.png,1,1,0.76349,,,,,,,,,c,2D
,,,,,,,18,female,B,2020-05-03_16h33.40.494,Remembering_Displays,2020.1.2,MacIntel,60,1,1,1,1,2.109545,0,23,23,15,1,Stimuli/testStimuliSquare/6u_s_14_s_2D.png,Stimuli/testStimuliSquare/6u_d_14_s_2D.png,1,1,0.528725,,,,,,,,,s,2D
,,,,,,,18,female,B,2020-05-03_16h33.40.494,Remembering_Displays,2020.1.2,MacIntel,60,,,,,,,,,,,,,,,,0,5,5,5,1,Stimuli/trialListSquares3.xlsx,Instructions/instr_18.png,Progress: 96 of 192 trials completed,,
,,,,,,,18,female,B,2020-05-03_16h33.40.494,Remembering_Displays,2020.1.2,MacIntel,60,9,1,1,1,0.373735,0,0,0,0,1,Stimuli/testStimuliCube/6u_s_13.png,Stimuli/testStimuliCube/6u_s_13.png,0,9,0.770155,,,,,,,,,c,3D
,,,,,,,18,female,B,2020-05-03_16h33.40.494,Remembering_Displays,2020.1.2,MacIntel,60,9,0,9,1,1.67425,0,1,1,7,1,Stimuli/testStimuliCube/6u_s_16.png,Stimuli/testStimuliCube/6u_d_16.png,1,1,0.85972,,,,,,,,,c,3D
,,,,,,,18,female,B,2020-05-03_16h33.40.494,Remembering_Displays,2020.1.2,MacIntel,60,1,1,9,1,0.883595,0,2,2,5,1,Stimuli/testStimuliCube/6u_s_15.png,Stimuli/testStimuliCube/6u_d_15.png,1,1,0.509175,,,,,,,,,c,3D
,,,,,,,18,female,B,2020-05-03_16h33.40.494,Remembering_Displays,2020.1.2,MacIntel,60,9,1,9,1,0.892585,0,3,3,20,1,Stimuli/testStimuliCube/6u_s_17_s.png,Stimuli/testStimuliCube/6u_s_17_s.png,0,9,0.969315,,,,,,,,,s,3D
,,,,,,,18,female,B,2020-05-03_16h33.40.494,Remembering_Displays,2020.1.2,MacIntel,60,9,1,1,0,2.634935,0,4,4,2,1,Stimuli/testStimuliCube/6u_s_14.png,Stimuli/testStimuliCube/6u_s_14.png,0,9,0.484745,,,,,,,,,c,3D
,,,,,,,18,female,B,2020-05-03_16h33.40.494,Remembering_Displays,2020.1.2,MacIntel,60,9,1,9,0,2.88103,0,5,5,14,1,Stimuli/testStimuliCube/6u_s_14_s.png,Stimuli/testStimuliCube/6u_s_14_s.png,0,9,0.5688,,,,,,,,,s,3D
,,,,,,,18,female,B,2020-05-03_16h33.40.494,Remembering_Displays,2020.1.2,MacIntel,60,1,1,9,1,1.22017,0,6,6,17,1,Stimuli/testStimuliCube/6u_s_15_s.png,Stimuli/testStimuliCube/6u_d_15_s.png,1,1,0.670035,,,,,,,,,s,3D
,,,,,,,18,female,B,2020-05-03_16h33.40.494,Remembering_Displays,2020.1.2,MacIntel,60,9,0,1,1,1.300335,0,7,7,11,1,Stimuli/testStimuliCube/6u_s_18.png,Stimuli/testStimuliCube/6u_d_18.png,1,1,0.53733,,,,,,,,,c,3D
,,,,,,,18,female,B,2020-05-03_16h33.40.494,Remembering_Displays,2020.1.2,MacIntel,60,9,0,9,0,1.714475,0,8,8,21,1,Stimuli/testStimuliCube/6u_s_17_s.png,Stimuli/testStimuliCube/6u_d_17_s.png,1,1,0.71636,,,,,,,,,s,3D
,,,,,,,18,female,B,2020-05-03_16h33.40.494,Remembering_Displays,2020.1.2,MacIntel,60,9,1,9,1,0.86831,0,9,9,22,1,Stimuli/testStimuliCube/6u_s_18_s.png,Stimuli/testStimuliCube/6u_s_18_s.png,0,9,0.739505,,,,,,,,,s,3D
,,,,,,,18,female,B,2020-05-03_16h33.40.494,Remembering_Displays,2020.1.2,MacIntel,60,9,1,1,1,1.41808,0,10,10,4,1,Stimuli/testStimuliCube/6u_s_15.png,Stimuli/testStimuliCube/6u_s_15.png,0,9,0.53715,,,,,,,,,c,3D
,,,,,,,18,female,B,2020-05-03_16h33.40.494,Remembering_Displays,2020.1.2,MacIntel,60,9,0,1,1,1.167865,0,11,11,9,1,Stimuli/testStimuliCube/6u_s_17.png,Stimuli/testStimuliCube/6u_d_17.png,1,1,0.642625,,,,,,,,,c,3D
,,,,,,,18,female,B,2020-05-03_16h33.40.494,Remembering_Displays,2020.1.2,MacIntel,60,9,1,9,1,0.96778,0,12,12,16,1,Stimuli/testStimuliCube/6u_s_15_s.png,Stimuli/testStimuliCube/6u_s_15_s.png,0,9,0.657155,,,,,,,,,s,3D
,,,,,,,18,female,B,2020-05-03_16h33.40.494,Remembering_Displays,2020.1.2,MacIntel,60,9,1,9,1,0.6681,0,13,13,6,1,Stimuli/testStimuliCube/6u_s_16.png,Stimuli/testStimuliCube/6u_s_16.png,0,9,0.577765,,,,,,,,,c,3D
,,,,,,,18,female,B,2020-05-03_16h33.40.494,Remembering_Displays,2020.1.2,MacIntel,60,1,1,9,1,1.171085,0,14,14,15,1,Stimuli/testStimuliCube/6u_s_14_s.png,Stimuli/testStimuliCube/6u_d_14_s.png,1,1,0.66724,,,,,,,,,s,3D
,,,,,,,18,female,B,2020-05-03_16h33.40.494,Remembering_Displays,2020.1.2,MacIntel,60,1,1,1,1,0.918825,0,15,15,19,1,Stimuli/testStimuliCube/6u_s_16_s.png,Stimuli/testStimuliCube/6u_d_16_s.png,1,1,0.59613,,,,,,,,,s,3D
,,,,,,,18,female,B,2020-05-03_16h33.40.494,Remembering_Displays,2020.1.2,MacIntel,60,9,0,9,1,1.3521,0,16,16,23,1,Stimuli/testStimuliCube/6u_s_18_s.png,Stimuli/testStimuliCube/6u_d_18_s.png,1,1,0.66518,,,,,,,,,s,3D
,,,,,,,18,female,B,2020-05-03_16h33.40.494,Remembering_Displays,2020.1.2,MacIntel,60,9,0,1,1,0.938135,0,17,17,13,1,Stimuli/testStimuliCube/6u_s_13_s.png,Stimuli/testStimuliCube/6u_d_13_s.png,1,1,0.511855,,,,,,,,,s,3D
,,,,,,,18,female,B,2020-05-03_16h33.40.494,Remembering_Displays,2020.1.2,MacIntel,60,9,1,1,1,1.105055,0,18,18,18,1,Stimuli/testStimuliCube/6u_s_16_s.png,Stimuli/testStimuliCube/6u_s_16_s.png,0,9,0.63653,,,,,,,,,s,3D
,,,,,,,18,female,B,2020-05-03_16h33.40.494,Remembering_Displays,2020.1.2,MacIntel,60,1,1,9,1,1.057125,0,19,19,3,1,Stimuli/testStimuliCube/6u_s_14.png,Stimuli/testStimuliCube/6u_d_14.png,1,1,0.712315,,,,,,,,,c,3D
,,,,,,,18,female,B,2020-05-03_16h33.40.494,Remembering_Displays,2020.1.2,MacIntel,60,9,1,1,1,1.36683,0,20,20,8,1,Stimuli/testStimuliCube/6u_s_17.png,Stimuli/testStimuliCube/6u_s_17.png,0,9,0.662145,,,,,,,,,c,3D
,,,,,,,18,female,B,2020-05-03_16h33.40.494,Remembering_Displays,2020.1.2,MacIntel,60,9,1,9,1,1.36965,0,21,21,12,1,Stimuli/testStimuliCube/6u_s_13_s.png,Stimuli/testStimuliCube/6u_s_13_s.png,0,9,0.775745,,,,,,,,,s,3D
,,,,,,,18,female,B,2020-05-03_16h33.40.494,Remembering_Displays,2020.1.2,MacIntel,60,9,1,1,1,0.93374,0,22,22,10,1,Stimuli/testStimuliCube/6u_s_18.png,Stimuli/testStimuliCube/6u_s_18.png,0,9,0.825195,,,,,,,,,c,3D
,,,,,,,18,female,B,2020-05-03_16h33.40.494,Remembering_Displays,2020.1.2,MacIntel,60,9,0,9,1,1.134105,0,23,23,1,1,Stimuli/testStimuliCube/6u_s_13.png,Stimuli/testStimuliCube/6u_d_13.png,1,1,1.032745,,,,,,,,,c,3D
,,,,,,,18,female,B,2020-05-03_16h33.40.494,Remembering_Displays,2020.1.2,MacIntel,60,,,,,,,,,,,,,,,,0,6,6,6,1,Stimuli/trialListCubes3.xlsx,Instructions/instr_19.png,Progress: 120 of 192 trials completed,,
,,,,,,,18,female,B,2020-05-03_16h33.40.494,Remembering_Displays,2020.1.2,MacIntel,60,1,1,9,1,0.92127,0,0,0,1,1,Stimuli/testStimuliSquare/6u_s_7_2D.png,Stimuli/testStimuliSquare/6u_d_7_2D.png,1,1,0.75982,,,,,,,,,c,2D
,,,,,,,18,female,B,2020-05-03_16h33.40.494,Remembering_Displays,2020.1.2,MacIntel,60,1,1,1,1,1.351315,0,1,1,13,1,Stimuli/testStimuliSquare/6u_s_7_s_2D.png,Stimuli/testStimuliSquare/6u_d_7_s_2D.png,1,1,0.5762,,,,,,,,,s,2D
,,,,,,,18,female,B,2020-05-03_16h33.40.494,Remembering_Displays,2020.1.2,MacIntel,60,1,1,1,1,0.51694,0,2,2,11,1,Stimuli/testStimuliSquare/6u_s_12_2D.png,Stimuli/testStimuliSquare/6u_d_12_2D.png,1,1,0.8118,,,,,,,,,c,2D
,,,,,,,18,female,B,2020-05-03_16h33.40.494,Remembering_Displays,2020.1.2,MacIntel,60,9,1,9,1,1.73383,0,3,3,14,1,Stimuli/testStimuliSquare/6u_s_8_s_2D.png,Stimuli/testStimuliSquare/6u_s_8_s_2D.png,0,9,0.94024,,,,,,,,,s,2D
,,,,,,,18,female,B,2020-05-03_16h33.40.494,Remembering_Displays,2020.1.2,MacIntel,60,1,1,1,1,0.47441,0,4,4,19,1,Stimuli/testStimuliSquare/6u_s_10_s_2D.png,Stimuli/testStimuliSquare/6u_d_10_s_2D.png,1,1,0.767995,,,,,,,,,s,2D
,,,,,,,18,female,B,2020-05-03_16h33.40.494,Remembering_Displays,2020.1.2,MacIntel,60,9,1,1,1,0.47006,0,5,5,22,1,Stimuli/testStimuliSquare/6u_s_12_s_2D.png,Stimuli/testStimuliSquare/6u_s_12_s_2D.png,0,9,0.706035,,,,,,,,,s,2D
,,,,,,,18,female,B,2020-05-03_16h33.40.494,Remembering_Displays,2020.1.2,MacIntel,60,9,1,1,1,1.42236,0,6,6,0,1,Stimuli/testStimuliSquare/6u_s_7_2D.png,Stimuli/testStimuliSquare/6u_s_7_2D.png,0,9,1.026495,,,,,,,,,c,2D
,,,,,,,18,female,B,2020-05-03_16h33.40.494,Remembering_Displays,2020.1.2,MacIntel,60,,0,9,1,1.11684,0,7,7,9,1,Stimuli/testStimuliSquare/6u_s_11_2D.png,Stimuli/testStimuliSquare/6u_d_11_2D.png,1,1,,,,,,,,,,c,2D
,,,,,,,18,female,B,2020-05-03_16h33.40.494,Remembering_Displays,2020.1.2,MacIntel,60,9,0,9,1,0.417775,0,8,8,7,1,Stimuli/testStimuliSquare/6u_s_10_2D.png,Stimuli/testStimuliSquare/6u_d_10_2D.png,1,1,0.47692,,,,,,,,,c,2D
,,,,,,,18,female,B,2020-05-03_16h33.40.494,Remembering_Displays,2020.1.2,MacIntel,60,1,0,9,1,1.13493,0,9,9,8,1,Stimuli/testStimuliSquare/6u_s_11_2D.png,Stimuli/testStimuliSquare/6u_s_11_2D.png,0,9,0.74156,,,,,,,,,c,2D
,,,,,,,18,female,B,2020-05-03_16h33.40.494,Remembering_Displays,2020.1.2,MacIntel,60,1,0,1,1,1.68337,0,10,10,20,1,Stimuli/testStimuliSquare/6u_s_11_s_2D.png,Stimuli/testStimuliSquare/6u_s_11_s_2D.png,0,9,0.62625,,,,,,,,,s,2D
,,,,,,,18,female,B,2020-05-03_16h33.40.494,Remembering_Displays,2020.1.2,MacIntel,60,1,1,9,1,1.308525,0,11,11,3,1,Stimuli/testStimuliSquare/6u_s_8_2D.png,Stimuli/testStimuliSquare/6u_d_8_2D.png,1,1,0.806755,,,,,,,,,c,2D
,,,,,,,18,female,B,2020-05-03_16h33.40.494,Remembering_Displays,2020.1.2,MacIntel,60,9,1,9,1,2.13772,0,12,12,12,1,Stimuli/testStimuliSquare/6u_s_7_s_2D.png,Stimuli/testStimuliSquare/6u_s_7_s_2D.png,0,9,0.773255,,,,,,,,,s,2D
,,,,,,,18,female,B,2020-05-03_16h33.40.494,Remembering_Displays,2020.1.2,MacIntel,60,1,1,9,1,1.78309,0,13,13,5,1,Stimuli/testStimuliSquare/6u_s_9_2D.png,Stimuli/testStimuliSquare/6u_d_9_2D.png,1,1,0.769605,,,,,,,,,c,2D
,,,,,,,18,female,B,2020-05-03_16h33.40.494,Remembering_Displays,2020.1.2,MacIntel,60,9,0,1,1,1.018455,0,14,14,23,1,Stimuli/testStimuliSquare/6u_s_12_s_2D.png,Stimuli/testStimuliSquare/6u_d_12_s_2D.png,1,1,1.19707,,,,,,,,,s,2D
,,,,,,,18,female,B,2020-05-03_16h33.40.494,Remembering_Displays,2020.1.2,MacIntel,60,9,1,1,1,0.455585,0,15,15,2,1,Stimuli/testStimuliSquare/6u_s_8_2D.png,Stimuli/testStimuliSquare/6u_s_8_2D.png,0,9,0.697855,,,,,,,,,c,2D
,,,,,,,18,female,B,2020-05-03_16h33.40.494,Remembering_Displays,2020.1.2,MacIntel,60,9,1,9,1,1.154825,0,16,16,16,1,Stimuli/testStimuliSquare/6u_s_9_s_2D.png,Stimuli/testStimuliSquare/6u_s_9_s_2D.png,0,9,1.08814,,,,,,,,,s,2D
,,,,,,,18,female,B,2020-05-03_16h33.40.494,Remembering_Displays,2020.1.2,MacIntel,60,9,0,1,1,1.26635,0,17,17,17,1,Stimuli/testStimuliSquare/6u_s_9_s_2D.png,Stimuli/testStimuliSquare/6u_d_9_s_2D.png,1,1,0.84755,,,,,,,,,s,2D
,,,,,,,18,female,B,2020-05-03_16h33.40.494,Remembering_Displays,2020.1.2,MacIntel,60,,0,9,1,1.36417,0,18,18,6,1,Stimuli/testStimuliSquare/6u_s_10_2D.png,Stimuli/testStimuliSquare/6u_s_10_2D.png,0,9,,,,,,,,,,c,2D
,,,,,,,18,female,B,2020-05-03_16h33.40.494,Remembering_Displays,2020.1.2,MacIntel,60,9,1,1,1,1.24422,0,19,19,10,1,Stimuli/testStimuliSquare/6u_s_12_2D.png,Stimuli/testStimuliSquare/6u_s_12_2D.png,0,9,0.37656,,,,,,,,,c,2D
,,,,,,,18,female,B,2020-05-03_16h33.40.494,Remembering_Displays,2020.1.2,MacIntel,60,9,1,1,1,1.63402,0,20,20,4,1,Stimuli/testStimuliSquare/6u_s_9_2D.png,Stimuli/testStimuliSquare/6u_s_9_2D.png,0,9,1.06103,,,,,,,,,c,2D
,,,,,,,18,female,B,2020-05-03_16h33.40.494,Remembering_Displays,2020.1.2,MacIntel,60,1,1,1,1,0.93469,0,21,21,21,1,Stimuli/testStimuliSquare/6u_s_11_s_2D.png,Stimuli/testStimuliSquare/6u_d_11_s_2D.png,1,1,0.73006,,,,,,,,,s,2D
,,,,,,,18,female,B,2020-05-03_16h33.40.494,Remembering_Displays,2020.1.2,MacIntel,60,1,1,1,1,1.224125,0,22,22,15,1,Stimuli/testStimuliSquare/6u_s_8_s_2D.png,Stimuli/testStimuliSquare/6u_d_8_s_2D.png,1,1,0.98016,,,,,,,,,s,2D
,,,,,,,18,female,B,2020-05-03_16h33.40.494,Remembering_Displays,2020.1.2,MacIntel,60,9,1,1,1,1.018065,0,23,23,18,1,Stimuli/testStimuliSquare/6u_s_10_s_2D.png,Stimuli/testStimuliSquare/6u_s_10_s_2D.png,0,9,0.87504,,,,,,,,,s,2D
,,,,,,,18,female,B,2020-05-03_16h33.40.494,Remembering_Displays,2020.1.2,MacIntel,60,,,,,,,,,,,,,,,,0,7,7,7,1,Stimuli/trialListSquares2.xlsx,Instructions/instr_18.png,Progress: 144 of 192 trials completed,,
,,,,,,,18,female,B,2020-05-03_16h33.40.494,Remembering_Displays,2020.1.2,MacIntel,60,9,1,9,1,0.64992,0,0,0,2,1,Stimuli/testStimuliCube/6u_s_20.png,Stimuli/testStimuliCube/6u_s_20.png,0,9,0.64323,,,,,,,,,c,3D
,,,,,,,18,female,B,2020-05-03_16h33.40.494,Remembering_Displays,2020.1.2,MacIntel,60,9,1,1,1,0.579245,0,1,1,22,1,Stimuli/testStimuliCube/6u_s_24_s.png,Stimuli/testStimuliCube/6u_s_24_s.png,0,9,0.62065,,,,,,,,,s,3D
,,,,,,,18,female,B,2020-05-03_16h33.40.494,Remembering_Displays,2020.1.2,MacIntel,60,9,1,9,1,1.934675,0,2,2,0,1,Stimuli/testStimuliCube/6u_s_19.png,Stimuli/testStimuliCube/6u_s_19.png,0,9,0.41726,,,,,,,,,c,3D
,,,,,,,18,female,B,2020-05-03_16h33.40.494,Remembering_Displays,2020.1.2,MacIntel,60,1,1,9,1,1.02383,0,3,3,23,1,Stimuli/testStimuliCube/6u_s_24_s.png,Stimuli/testStimuliCube/6u_d_24_s.png,1,1,0.58068,,,,,,,,,s,3D
,,,,,,,18,female,B,2020-05-03_16h33.40.494,Remembering_Displays,2020.1.2,MacIntel,60,1,1,1,0,1.27547,0,4,4,17,1,Stimuli/testStimuliCube/6u_s_21_s.png,Stimuli/testStimuliCube/6u_d_21_s.png,1,1,0.732125,,,,,,,,,s,3D
,,,,,,,18,female,B,2020-05-03_16h33.40.494,Remembering_Displays,2020.1.2,MacIntel,60,9,0,1,0,0.60017,0,5,5,9,1,Stimuli/testStimuliCube/6u_s_23.png,Stimuli/testStimuliCube/6u_d_23.png,1,1,0.69414,,,,,,,,,c,3D
,,,,,,,18,female,B,2020-05-03_16h33.40.494,Remembering_Displays,2020.1.2,MacIntel,60,1,1,9,1,3.170305,0,6,6,13,1,Stimuli/testStimuliCube/6u_s_19_s.png,Stimuli/testStimuliCube/6u_d_19_s.png,1,1,0.72533,,,,,,,,,s,3D
,,,,,,,18,female,B,2020-05-03_16h33.40.494,Remembering_Displays,2020.1.2,MacIntel,60,9,1,1,1,1.667355,0,7,7,4,1,Stimuli/testStimuliCube/6u_s_21.png,Stimuli/testStimuliCube/6u_s_21.png,0,9,1.457325,,,,,,,,,c,3D
,,,,,,,18,female,B,2020-05-03_16h33.40.494,Remembering_Displays,2020.1.2,MacIntel,60,9,1,9,0,0.98751,0,8,8,8,1,Stimuli/testStimuliCube/6u_s_23.png,Stimuli/testStimuliCube/6u_s_23.png,0,9,0.52437,,,,,,,,,c,3D
,,,,,,,18,female,B,2020-05-03_16h33.40.494,Remembering_Displays,2020.1.2,MacIntel,60,9,1,1,1,0.952605,0,9,9,12,1,Stimuli/testStimuliCube/6u_s_19_s.png,Stimuli/testStimuliCube/6u_s_19_s.png,0,9,0.517395,,,,,,,,,s,3D
,,,,,,,18,female,B,2020-05-03_16h33.40.494,Remembering_Displays,2020.1.2,MacIntel,60,1,1,1,1,0.60757,0,10,10,1,1,Stimuli/testStimuliCube/6u_s_19.png,Stimuli/testStimuliCube/6u_d_19.png,1,1,0.70273,,,,,,,,,c,3D
,,,,,,,18,female,B,2020-05-03_16h33.40.494,Remembering_Displays,2020.1.2,MacIntel,60,1,1,1,1,1.077195,0,11,11,15,1,Stimuli/testStimuliCube/6u_s_20_s.png,Stimuli/testStimuliCube/6u_d_20_s.png,1,1,0.65026,,,,,,,,,s,3D
,,,,,,,18,female,B,2020-05-03_16h33.40.494,Remembering_Displays,2020.1.2,MacIntel,60,1,0,9,0,1.70906,0,12,12,20,1,Stimuli/testStimuliCube/6u_s_23_s.png,Stimuli/testStimuliCube/6u_s_23_s.png,0,9,0.81153,,,,,,,,,s,3D
,,,,,,,18,female,B,2020-05-03_16h33.40.494,Remembering_Displays,2020.1.2,MacIntel,60,9,1,9,1,0.920385,0,13,13,6,1,Stimuli/testStimuliCube/6u_s_22.png,Stimuli/testStimuliCube/6u_s_22.png,0,9,0.695855,,,,,,,,,c,3D
,,,,,,,18,female,B,2020-05-03_16h33.40.494,Remembering_Displays,2020.1.2,MacIntel,60,9,1,1,1,0.584395,0,14,14,16,1,Stimuli/testStimuliCube/6u_s_21_s.png,Stimuli/testStimuliCube/6u_s_21_s.png,0,9,0.676105,,,,,,,,,s,3D
,,,,,,,18,female,B,2020-05-03_16h33.40.494,Remembering_Displays,2020.1.2,MacIntel,60,1,1,1,1,0.69984,0,15,15,7,1,Stimuli/testStimuliCube/6u_s_22.png,Stimuli/testStimuliCube/6u_d_22.png,1,1,0.59406,,,,,,,,,c,3D
,,,,,,,18,female,B,2020-05-03_16h33.40.494,Remembering_Displays,2020.1.2,MacIntel,60,1,1,9,1,0.3407,0,16,16,19,1,Stimuli/testStimuliCube/6u_s_22_s.png,Stimuli/testStimuliCube/6u_d_22_s.png,1,1,0.514705,,,,,,,,,s,3D
,,,,,,,18,female,B,2020-05-03_16h33.40.494,Remembering_Displays,2020.1.2,MacIntel,60,9,1,1,1,0.840445,0,17,17,18,1,Stimuli/testStimuliCube/6u_s_22_s.png,Stimuli/testStimuliCube/6u_s_22_s.png,0,9,0.848555,,,,,,,,,s,3D
,,,,,,,18,female,B,2020-05-03_16h33.40.494,Remembering_Displays,2020.1.2,MacIntel,60,1,1,9,1,1.182625,0,18,18,21,1,Stimuli/testStimuliCube/6u_s_23_s.png,Stimuli/testStimuliCube/6u_d_23_s.png,1,1,0.61313,,,,,,,,,s,3D
,,,,,,,18,female,B,2020-05-03_16h33.40.494,Remembering_Displays,2020.1.2,MacIntel,60,1,1,9,1,1.783735,0,19,19,5,1,Stimuli/testStimuliCube/6u_s_21.png,Stimuli/testStimuliCube/6u_d_21.png,1,1,0.74484,,,,,,,,,c,3D
,,,,,,,18,female,B,2020-05-03_16h33.40.494,Remembering_Displays,2020.1.2,MacIntel,60,1,1,9,1,0.50947,0,20,20,3,1,Stimuli/testStimuliCube/6u_s_20.png,Stimuli/testStimuliCube/6u_d_20.png,1,1,0.446125,,,,,,,,,c,3D
,,,,,,,18,female,B,2020-05-03_16h33.40.494,Remembering_Displays,2020.1.2,MacIntel,60,9,1,1,1,0.467605,0,21,21,10,1,Stimuli/testStimuliCube/6u_s_24.png,Stimuli/testStimuliCube/6u_s_24.png,0,9,0.988485,,,,,,,,,c,3D
,,,,,,,18,female,B,2020-05-03_16h33.40.494,Remembering_Displays,2020.1.2,MacIntel,60,9,1,1,1,0.45884,0,22,22,14,1,Stimuli/testStimuliCube/6u_s_20_s.png,Stimuli/testStimuliCube/6u_s_20_s.png,0,9,0.678065,,,,,,,,,s,3D
,,,,,,,18,female,B,2020-05-03_16h33.40.494,Remembering_Displays,2020.1.2,MacIntel,60,9,0,9,1,1.40092,0,23,23,11,1,Stimuli/testStimuliCube/6u_s_24.png,Stimuli/testStimuliCube/6u_d_24.png,1,1,0.916325,,,,,,,,,c,3D
,,,,,,,18,female,B,2020-05-03_16h33.40.494,Remembering_Displays,2020.1.2,MacIntel,60,,,,,,,,,,,,,,,,0,8,8,8,1,Stimuli/trialListCubes4.xlsx,Instructions/instr_19.png,Progress: 168 of 192 trials completed,,
,,,,,,,18,female,B,2020-05-03_16h33.40.494,Remembering_Displays,2020.1.2,MacIntel,60,9,1,9,1,1.5296,0,0,0,18,1,Stimuli/testStimuliSquare/6u_s_4_s_2D.png,Stimuli/testStimuliSquare/6u_s_4_s_2D.png,0,9,0.616385,,,,,,,,,s,2D
,,,,,,,18,female,B,2020-05-03_16h33.40.494,Remembering_Displays,2020.1.2,MacIntel,60,1,1,9,1,1.14988,0,1,1,13,1,Stimuli/testStimuliSquare/6u_s_1_s_2D.png,Stimuli/testStimuliSquare/6u_d_1_s_2D.png,1,1,0.461395,,,,,,,,,s,2D
,,,,,,,18,female,B,2020-05-03_16h33.40.494,Remembering_Displays,2020.1.2,MacIntel,60,9,1,9,1,0.633145,0,2,2,20,1,Stimuli/testStimuliSquare/6u_s_5_s_2D.png,Stimuli/testStimuliSquare/6u_s_5_s_2D.png,0,9,1.136925,,,,,,,,,s,2D
,,,,,,,18,female,B,2020-05-03_16h33.40.494,Remembering_Displays,2020.1.2,MacIntel,60,1,1,9,1,0.53036,0,3,3,21,1,Stimuli/testStimuliSquare/6u_s_5_s_2D.png,Stimuli/testStimuliSquare/6u_d_5_s_2D.png,1,1,0.53065,,,,,,,,,s,2D
,,,,,,,18,female,B,2020-05-03_16h33.40.494,Remembering_Displays,2020.1.2,MacIntel,60,9,1,9,1,2.15082,0,4,4,2,1,Stimuli/testStimuliSquare/6u_s_2_2D.png,Stimuli/testStimuliSquare/6u_s_2_2D.png,0,9,0.64014,,,,,,,,,c,2D
,,,,,,,18,female,B,2020-05-03_16h33.40.494,Remembering_Displays,2020.1.2,MacIntel,60,9,0,9,1,0.71131,0,5,5,9,1,Stimuli/testStimuliSquare/6u_s_5_2D.png,Stimuli/testStimuliSquare/6u_d_5_2D.png,1,1,0.64164,,,,,,,,,c,2D
,,,,,,,18,female,B,2020-05-03_16h33.40.494,Remembering_Displays,2020.1.2,MacIntel,60,9,1,9,1,0.63917,0,6,6,12,1,Stimuli/testStimuliSquare/6u_s_1_s_2D.png,Stimuli/testStimuliSquare/6u_s_1_s_2D.png,0,9,0.559305,,,,,,,,,s,2D
,,,,,,,18,female,B,2020-05-03_16h33.40.494,Remembering_Displays,2020.1.2,MacIntel,60,9,1,9,1,1.44278,0,7,7,8,1,Stimuli/testStimuliSquare/6u_s_5_2D.png,Stimuli/testStimuliSquare/6u_s_5_2D.png,0,9,0.53641,,,,,,,,,c,2D
,,,,,,,18,female,B,2020-05-03_16h33.40.494,Remembering_Displays,2020.1.2,MacIntel,60,9,1,9,1,0.605325,0,8,8,16,1,Stimuli/testStimuliSquare/6u_s_3_s_2D.png,Stimuli/testStimuliSquare/6u_s_3_s_2D.png,0,9,1.04954,,,,,,,,,s,2D
,,,,,,,18,female,B,2020-05-03_16h33.40.494,Remembering_Displays,2020.1.2,MacIntel,60,1,1,9,1,1.407285,0,9,9,17,1,Stimuli/testStimuliSquare/6u_s_3_s_2D.png,Stimuli/testStimuliSquare/6u_d_3_s_2D.png,1,1,0.59038,,,,,,,,,s,2D
,,,,,,,18,female,B,2020-05-03_16h33.40.494,Remembering_Displays,2020.1.2,MacIntel,60,9,0,9,1,0.57134,0,10,10,3,1,Stimuli/testStimuliSquare/6u_s_2_2D.png,Stimuli/testStimuliSquare/6u_d_2_2D.png,1,1,0.649655,,,,,,,,,c,2D
,,,,,,,18,female,B,2020-05-03_16h33.40.494,Remembering_Displays,2020.1.2,MacIntel,60,9,0,1,1,1.303415,0,11,11,15,1,Stimuli/testStimuliSquare/6u_s_2_s_2D.png,Stimuli/testStimuliSquare/6u_d_2_s_2D.png,1,1,0.752085,,,,,,,,,s,2D
,,,,,,,18,female,B,2020-05-03_16h33.40.494,Remembering_Displays,2020.1.2,MacIntel,60,9,1,9,1,1.034125,0,12,12,22,1,Stimuli/testStimuliSquare/6u_s_6_s_2D.png,Stimuli/testStimuliSquare/6u_s_6_s_2D.png,0,9,1.206585,,,,,,,,,s,2D
,,,,,,,18,female,B,2020-05-03_16h33.40.494,Remembering_Displays,2020.1.2,MacIntel,60,1,1,1,1,2.134335,0,13,13,1,1,Stimuli/testStimuliSquare/6u_s_1_2D.png,Stimuli/testStimuliSquare/6u_d_1_2D.png,1,1,0.76815,,,,,,,,,c,2D
,,,,,,,18,female,B,2020-05-03_16h33.40.494,Remembering_Displays,2020.1.2,MacIntel,60,1,0,1,1,1.843555,0,14,14,10,1,Stimuli/testStimuliSquare/6u_s_6_2D.png,Stimuli/testStimuliSquare/6u_s_6_2D.png,0,9,1.05627,,,,,,,,,c,2D
,,,,,,,18,female,B,2020-05-03_16h33.40.494,Remembering_Displays,2020.1.2,MacIntel,60,,0,1,1,2.775225,0,15,15,5,1,Stimuli/testStimuliSquare/6u_s_3_2D.png,Stimuli/testStimuliSquare/6u_d_3_2D.png,1,1,,,,,,,,,,c,2D
,,,,,,,18,female,B,2020-05-03_16h33.40.494,Remembering_Displays,2020.1.2,MacIntel,60,9,1,1,1,0.5579,0,16,16,4,1,Stimuli/testStimuliSquare/6u_s_3_2D.png,Stimuli/testStimuliSquare/6u_s_3_2D.png,0,9,0.75832,,,,,,,,,c,2D
,,,,,,,18,female,B,2020-05-03_16h33.40.494,Remembering_Displays,2020.1.2,MacIntel,60,9,1,1,1,2.62264,0,17,17,0,1,Stimuli/testStimuliSquare/6u_s_1_2D.png,Stimuli/testStimuliSquare/6u_s_1_2D.png,0,9,0.55914,,,,,,,,,c,2D
,,,,,,,18,female,B,2020-05-03_16h33.40.494,Remembering_Displays,2020.1.2,MacIntel,60,1,1,1,1,0.64991,0,18,18,7,1,Stimuli/testStimuliSquare/6u_s_4_2D.png,Stimuli/testStimuliSquare/6u_d_4_2D.png,1,1,0.81055,,,,,,,,,c,2D
,,,,,,,18,female,B,2020-05-03_16h33.40.494,Remembering_Displays,2020.1.2,MacIntel,60,1,1,9,1,1.288905,0,19,19,19,1,Stimuli/testStimuliSquare/6u_s_4_s_2D.png,Stimuli/testStimuliSquare/6u_d_4_s_2D.png,1,1,0.591715,,,,,,,,,s,2D
,,,,,,,18,female,B,2020-05-03_16h33.40.494,Remembering_Displays,2020.1.2,MacIntel,60,1,0,9,1,0.98871,0,20,20,14,1,Stimuli/testStimuliSquare/6u_s_2_s_2D.png,Stimuli/testStimuliSquare/6u_s_2_s_2D.png,0,9,0.907415,,,,,,,,,s,2D
,,,,,,,18,female,B,2020-05-03_16h33.40.494,Remembering_Displays,2020.1.2,MacIntel,60,9,1,9,1,1.21652,0,21,21,6,1,Stimuli/testStimuliSquare/6u_s_4_2D.png,Stimuli/testStimuliSquare/6u_s_4_2D.png,0,9,0.89096,,,,,,,,,c,2D
,,,,,,,18,female,B,2020-05-03_16h33.40.494,Remembering_Displays,2020.1.2,MacIntel,60,1,1,1,1,0.974695,0,22,22,11,1,Stimuli/testStimuliSquare/6u_s_6_2D.png,Stimuli/testStimuliSquare/6u_d_6_2D.png,1,1,0.76121,,,,,,,,,c,2D
,,,,,,,18,female,B,2020-05-03_16h33.40.494,Remembering_Displays,2020.1.2,MacIntel,60,1,1,1,1,0.50112,0,23,23,23,1,Stimuli/testStimuliSquare/6u_s_6_s_2D.png,Stimuli/testStimuliSquare/6u_d_6_s_2D.png,1,1,0.75417,,,,,,,,,s,2D