instr_Loop.thisRepN,instr_Loop.thisTrialN,instr_Loop.thisN,instr_Loop.thisIndex,instr_Loop.ran,instructionImage,time,age,sex (female/male),order,date,expName,psychopyVersion,OS,frameRate,struc_judge_respond.keys,struc_judge_respond.corr,dual_respond.keys,dual_respond.corr,dual_respond.rt,trials.thisRepN,trials.thisTrialN,trials.thisN,trials.thisIndex,trials.ran,stim1,stim2,isAnyChange,corrAns,struc_judge_respond.rt,selectBlock.thisRepN,selectBlock.thisTrialN,selectBlock.thisN,selectBlock.thisIndex,selectBlock.ran,condsFile,condsImage,remaining,connected,dimensionality
0,0,0,0,1,Instructions/instr_1.png,5,18,female ,B,2020-05-03_22h23.16.793,Remembering_Displays,2020.1.2,MacIntel,60,,,,,,,,,,,,,,,,,,,,,,,,,
0,1,1,1,1,Instructions/instr_2.png,3,18,female ,B,2020-05-03_22h23.16.793,Remembering_Displays,2020.1.2,MacIntel,60,,,,,,,,,,,,,,,,,,,,,,,,,
0,2,2,2,1,Instructions/instr_3.png,5,18,female ,B,2020-05-03_22h23.16.793,Remembering_Displays,2020.1.2,MacIntel,60,,,,,,,,,,,,,,,,,,,,,,,,,
0,3,3,3,1,Instructions/instr_4.png,1,18,female ,B,2020-05-03_22h23.16.793,Remembering_Displays,2020.1.2,MacIntel,60,,,,,,,,,,,,,,,,,,,,,,,,,
0,4,4,4,1,Instructions/instr_5.png,1,18,female ,B,2020-05-03_22h23.16.793,Remembering_Displays,2020.1.2,MacIntel,60,,,,,,,,,,,,,,,,,,,,,,,,,
0,5,5,5,1,Instructions/instr_6.png,1,18,female ,B,2020-05-03_22h23.16.793,Remembering_Displays,2020.1.2,MacIntel,60,,,,,,,,,,,,,,,,,,,,,,,,,
0,6,6,6,1,Instructions/instr_7.png,1,18,female ,B,2020-05-03_22h23.16.793,Remembering_Displays,2020.1.2,MacIntel,60,,,,,,,,,,,,,,,,,,,,,,,,,
0,7,7,7,1,Instructions/instr_8.png,3,18,female ,B,2020-05-03_22h23.16.793,Remembering_Displays,2020.1.2,MacIntel,60,,,,,,,,,,,,,,,,,,,,,,,,,
0,8,8,8,1,Instructions/instr_9.png,3,18,female ,B,2020-05-03_22h23.16.793,Remembering_Displays,2020.1.2,MacIntel,60,,,,,,,,,,,,,,,,,,,,,,,,,
0,9,9,9,1,Instructions/instr_10.png,3,18,female ,B,2020-05-03_22h23.16.793,Remembering_Displays,2020.1.2,MacIntel,60,,,,,,,,,,,,,,,,,,,,,,,,,
0,10,10,10,1,Instructions/instr_11.png,3,18,female ,B,2020-05-03_22h23.16.793,Remembering_Displays,2020.1.2,MacIntel,60,,,,,,,,,,,,,,,,,,,,,,,,,
0,11,11,11,1,Instructions/instr_12.png,3,18,female ,B,2020-05-03_22h23.16.793,Remembering_Displays,2020.1.2,MacIntel,60,,,,,,,,,,,,,,,,,,,,,,,,,
0,12,12,12,1,Instructions/instr_13.png,3,18,female ,B,2020-05-03_22h23.16.793,Remembering_Displays,2020.1.2,MacIntel,60,,,,,,,,,,,,,,,,,,,,,,,,,
0,13,13,13,1,Instructions/instr_14.png,3,18,female ,B,2020-05-03_22h23.16.793,Remembering_Displays,2020.1.2,MacIntel,60,,,,,,,,,,,,,,,,,,,,,,,,,
0,14,14,14,1,Instructions/instr_15.png,3,18,female ,B,2020-05-03_22h23.16.793,Remembering_Displays,2020.1.2,MacIntel,60,,,,,,,,,,,,,,,,,,,,,,,,,
0,15,15,15,1,Instructions/instr_16.png,5,18,female ,B,2020-05-03_22h23.16.793,Remembering_Displays,2020.1.2,MacIntel,60,,,,,,,,,,,,,,,,,,,,,,,,,
,,,,,,,18,female ,B,2020-05-03_22h23.16.793,Remembering_Displays,2020.1.2,MacIntel,60,,0,1,1,8.166325,0,0,0,7,1,Stimuli/practiceStimuliCube/practice4_s.png,Stimuli/practiceStimuliCube/practice4_s.png,0,9,,,,,,,,,,,
,,,,,,,18,female ,B,2020-05-03_22h23.16.793,Remembering_Displays,2020.1.2,MacIntel,60,1,1,1,0,0.46721,0,1,1,3,1,Stimuli/practiceStimuliCube/practice4_s.png,Stimuli/practiceStimuliCube/practice4_d.png,1,1,0.259875,,,,,,,,,,
,,,,,,,18,female ,B,2020-05-03_22h23.16.793,Remembering_Displays,2020.1.2,MacIntel,60,1,1,1,1,0.178385,0,2,2,1,1,Stimuli/practiceStimuliCube/practice2_s.png,Stimuli/practiceStimuliCube/practice2_d.png,1,1,1.163145,,,,,,,,,,
,,,,,,,18,female ,B,2020-05-03_22h23.16.793,Remembering_Displays,2020.1.2,MacIntel,60,1,0,1,1,16.03539,0,3,3,0,1,Stimuli/practiceStimuliCube/practice1_s.png,Stimuli/practiceStimuliCube/practice1_s.png,0,9,0.204095,,,,,,,,,,
,,,,,,,18,female ,B,2020-05-03_22h23.16.793,Remembering_Displays,2020.1.2,MacIntel,60,1,1,1,0,0.77458,0,4,4,6,1,Stimuli/practiceStimuliCube/practice3_s.png,Stimuli/practiceStimuliCube/practice3_d.png,1,1,0.60277,,,,,,,,,,
,,,,,,,18,female ,B,2020-05-03_22h23.16.793,Remembering_Displays,2020.1.2,MacIntel,60,,0,1,1,0.73059,0,5,5,5,1,Stimuli/practiceStimuliCube/practice2_s.png,Stimuli/practiceStimuliCube/practice2_s.png,0,9,,,,,,,,,,,
,,,,,,,18,female ,B,2020-05-03_22h23.16.793,Remembering_Displays,2020.1.2,MacIntel,60,9,0,9,1,0.071605,0,6,6,4,1,Stimuli/practiceStimuliCube/practice1_s.png,Stimuli/practiceStimuliCube/practice1_d.png,1,1,0.102015,,,,,,,,,,
,,,,,,,18,female ,B,2020-05-03_22h23.16.793,Remembering_Displays,2020.1.2,MacIntel,60,1,0,1,0,1.00241,0,7,7,2,1,Stimuli/practiceStimuliCube/practice3_s.png,Stimuli/practiceStimuliCube/practice3_s.png,0,9,0.073205,,,,,,,,,,
,,,,,,,18,female ,B,2020-05-03_22h23.16.793,Remembering_Displays,2020.1.2,MacIntel,60,,,,,,,,,,,,,,,,0,0,0,0,1,Stimuli/practiceListCubes.xlsx,Instructions/instr_practice_B.png,Practice trials completed,,
,,,,,,,18,female ,B,2020-05-03_22h23.16.793,Remembering_Displays,2020.1.2,MacIntel,60,1,1,9,0,0.93521,0,0,0,13,1,Stimuli/testStimuliCube/6u_s_1_s.png,Stimuli/testStimuliCube/6u_d_1_s.png,1,1,0.298145,,,,,,,,,s,3D
,,,,,,,18,female ,B,2020-05-03_22h23.16.793,Remembering_Displays,2020.1.2,MacIntel,60,9,0,1,0,0.73697,0,1,1,15,1,Stimuli/testStimuliCube/6u_s_2_s.png,Stimuli/testStimuliCube/6u_d_2_s.png,1,1,0.487915,,,,,,,,,s,3D
,,,,,,,18,female ,B,2020-05-03_22h23.16.793,Remembering_Displays,2020.1.2,MacIntel,60,,0,1,1,0.89104,0,2,2,21,1,Stimuli/testStimuliCube/6u_s_5_s.png,Stimuli/testStimuliCube/6u_d_5_s.png,1,1,,,,,,,,,,s,3D
,,,,,,,18,female ,B,2020-05-03_22h23.16.793,Remembering_Displays,2020.1.2,MacIntel,60,1,0,1,1,0.63786,0,3,3,8,1,Stimuli/testStimuliCube/6u_s_5.png,Stimuli/testStimuliCube/6u_s_5.png,0,9,0.065295,,,,,,,,,c,3D
,,,,,,,18,female ,B,2020-05-03_22h23.16.793,Remembering_Displays,2020.1.2,MacIntel,60,1,1,1,0,0.397975,0,4,4,19,1,Stimuli/testStimuliCube/6u_s_4_s.png,Stimuli/testStimuliCube/6u_d_4_s.png,1,1,0.40155,,,,,,,,,s,3D
,,,,,,,18,female ,B,2020-05-03_22h23.16.793,Remembering_Displays,2020.1.2,MacIntel,60,1,0,1,1,0.567465,0,5,5,12,1,Stimuli/testStimuliCube/6u_s_1_s.png,Stimuli/testStimuliCube/6u_s_1_s.png,0,9,0.075585,,,,,,,,,s,3D
,,,,,,,18,female ,B,2020-05-03_22h23.16.793,Remembering_Displays,2020.1.2,MacIntel,60,1,1,1,0,0.989555,0,6,6,7,1,Stimuli/testStimuliCube/6u_s_4.png,Stimuli/testStimuliCube/6u_d_4.png,1,1,0.20405,,,,,,,,,c,3D
,,,,,,,18,female ,B,2020-05-03_22h23.16.793,Remembering_Displays,2020.1.2,MacIntel,60,1,0,9,0,2.25158,0,7,7,14,1,Stimuli/testStimuliCube/6u_s_2_s.png,Stimuli/testStimuliCube/6u_s_2_s.png,0,9,0.64204,,,,,,,,,s,3D
,,,,,,,18,female ,B,2020-05-03_22h23.16.793,Remembering_Displays,2020.1.2,MacIntel,60,,0,9,0,0.00079,0,8,8,17,1,Stimuli/testStimuliCube/6u_s_3_s.png,Stimuli/testStimuliCube/6u_d_3_s.png,1,1,,,,,,,,,,s,3D
,,,,,,,18,female ,B,2020-05-03_22h23.16.793,Remembering_Displays,2020.1.2,MacIntel,60,1,0,1,0,0.2796,0,9,9,16,1,Stimuli/testStimuliCube/6u_s_3_s.png,Stimuli/testStimuliCube/6u_s_3_s.png,0,9,0.008935,,,,,,,,,s,3D
,,,,,,,18,female ,B,2020-05-03_22h23.16.793,Remembering_Displays,2020.1.2,MacIntel,60,9,0,9,1,1.358545,0,10,10,11,1,Stimuli/testStimuliCube/6u_s_6.png,Stimuli/testStimuliCube/6u_d_6.png,1,1,0.233415,,,,,,,,,c,3D
,,,,,,,18,female ,B,2020-05-03_22h23.16.793,Remembering_Displays,2020.1.2,MacIntel,60,9,1,9,1,0.406335,0,11,11,2,1,Stimuli/testStimuliCube/6u_s_2.png,Stimuli/testStimuliCube/6u_s_2.png,0,9,0.857665,,,,,,,,,c,3D
,,,,,,,18,female ,B,2020-05-03_22h23.16.793,Remembering_Displays,2020.1.2,MacIntel,60,9,1,9,1,0.29643,0,12,12,20,1,Stimuli/testStimuliCube/6u_s_5_s.png,Stimuli/testStimuliCube/6u_s_5_s.png,0,9,0.273835,,,,,,,,,s,3D
,,,,,,,18,female ,B,2020-05-03_22h23.16.793,Remembering_Displays,2020.1.2,MacIntel,60,9,1,9,1,0.06986,0,13,13,18,1,Stimuli/testStimuliCube/6u_s_4_s.png,Stimuli/testStimuliCube/6u_s_4_s.png,0,9,0.21084,,,,,,,,,s,3D
,,,,,,,18,female ,B,2020-05-03_22h23.16.793,Remembering_Displays,2020.1.2,MacIntel,60,9,0,9,0,0.466195,0,14,14,3,1,Stimuli/testStimuliCube/6u_s_2.png,Stimuli/testStimuliCube/6u_d_2.png,1,1,0.35691,,,,,,,,,c,3D
,,,,,,,18,female ,B,2020-05-03_22h23.16.793,Remembering_Displays,2020.1.2,MacIntel,60,,0,1,0,1.282905,0,15,15,10,1,Stimuli/testStimuliCube/6u_s_6.png,Stimuli/testStimuliCube/6u_s_6.png,0,9,,,,,,,,,,c,3D
,,,,,,,18,female ,B,2020-05-03_22h23.16.793,Remembering_Displays,2020.1.2,MacIntel,60,,0,1,1,1.983835,0,16,16,22,1,Stimuli/testStimuliCube/6u_s_6_s.png,Stimuli/testStimuliCube/6u_s_6_s.png,0,9,,,,,,,,,,s,3D
,,,,,,,18,female ,B,2020-05-03_22h23.16.793,Remembering_Displays,2020.1.2,MacIntel,60,1,1,1,0,0.501255,0,17,17,5,1,Stimuli/testStimuliCube/6u_s_3.png,Stimuli/testStimuliCube/6u_d_3.png,1,1,0.265945,,,,,,,,,c,3D
,,,,,,,18,female ,B,2020-05-03_22h23.16.793,Remembering_Displays,2020.1.2,MacIntel,60,,0,1,0,6.488415,0,18,18,6,1,Stimuli/testStimuliCube/6u_s_4.png,Stimuli/testStimuliCube/6u_s_4.png,0,9,,,,,,,,,,c,3D
,,,,,,,18,female ,B,2020-05-03_22h23.16.793,Remembering_Displays,2020.1.2,MacIntel,60,,0,9,0,1.870425,0,19,19,0,1,Stimuli/testStimuliCube/6u_s_1.png,Stimuli/testStimuliCube/6u_s_1.png,0,9,,,,,,,,,,c,3D
,,,,,,,18,female ,B,2020-05-03_22h23.16.793,Remembering_Displays,2020.1.2,MacIntel,60,9,1,9,1,0.288085,0,20,20,4,1,Stimuli/testStimuliCube/6u_s_3.png,Stimuli/testStimuliCube/6u_s_3.png,0,9,0.22387,,,,,,,,,c,3D
,,,,,,,18,female ,B,2020-05-03_22h23.16.793,Remembering_Displays,2020.1.2,MacIntel,60,9,0,9,0,0.70097,0,21,21,9,1,Stimuli/testStimuliCube/6u_s_5.png,Stimuli/testStimuliCube/6u_d_5.png,1,1,0.60411,,,,,,,,,c,3D
,,,,,,,18,female ,B,2020-05-03_22h23.16.793,Remembering_Displays,2020.1.2,MacIntel,60,,0,9,0,0.51809,0,22,22,23,1,Stimuli/testStimuliCube/6u_s_6_s.png,Stimuli/testStimuliCube/6u_d_6_s.png,1,1,,,,,,,,,,s,3D
,,,,,,,18,female ,B,2020-05-03_22h23.16.793,Remembering_Displays,2020.1.2,MacIntel,60,1,1,1,0,0.31293,0,23,23,1,1,Stimuli/testStimuliCube/6u_s_1.png,Stimuli/testStimuliCube/6u_d_1.png,1,1,0.22997,,,,,,,,,c,3D
,,,,,,,18,female ,B,2020-05-03_22h23.16.793,Remembering_Displays,2020.1.2,MacIntel,60,,,,,,,,,,,,,,,,0,1,1,1,1,Stimuli/trialListCubes1.xlsx,Instructions/instr_19.png,Progress: 24 of 192 trials completed,,
,,,,,,,18,female ,B,2020-05-03_22h23.16.793,Remembering_Displays,2020.1.2,MacIntel,60,1,0,1,0,0.165645,0,0,0,0,1,Stimuli/practiceStimuliSquare/practice1_s.png,Stimuli/practiceStimuliSquare/practice1_s.png,0,9,0.000565,,,,,,,,,,
,,,,,,,18,female ,B,2020-05-03_22h23.16.793,Remembering_Displays,2020.1.2,MacIntel,60,,0,1,1,4.30282,0,1,1,1,1,Stimuli/practiceStimuliSquare/practice2_s.png,Stimuli/practiceStimuliSquare/practice2_d.png,1,1,,,,,,,,,,,
,,,,,,,18,female ,B,2020-05-03_22h23.16.793,Remembering_Displays,2020.1.2,MacIntel,60,,0,1,1,1.305505,0,2,2,2,1,Stimuli/practiceStimuliSquare/practice3_s.png,Stimuli/practiceStimuliSquare/practice3_s.png,0,9,,,,,,,,,,,
,,,,,,,18,female ,B,2020-05-03_22h23.16.793,Remembering_Displays,2020.1.2,MacIntel,60,1,1,1,1,0.45084,0,3,3,6,1,Stimuli/practiceStimuliSquare/practice3_s.png,Stimuli/practiceStimuliSquare/practice3_d.png,1,1,0.30819,,,,,,,,,,
,,,,,,,18,female ,B,2020-05-03_22h23.16.793,Remembering_Displays,2020.1.2,MacIntel,60,1,1,1,0,0.16727,0,4,4,4,1,Stimuli/practiceStimuliSquare/practice1_s.png,Stimuli/practiceStimuliSquare/practice1_d.png,1,1,0.13835,,,,,,,,,,
,,,,,,,18,female ,B,2020-05-03_22h23.16.793,Remembering_Displays,2020.1.2,MacIntel,60,,0,9,1,0.268595,0,5,5,3,1,Stimuli/practiceStimuliSquare/practice4_s.png,Stimuli/practiceStimuliSquare/practice4_d.png,1,1,,,,,,,,,,,
,,,,,,,18,female ,B,2020-05-03_22h23.16.793,Remembering_Displays,2020.1.2,MacIntel,60,9,1,9,1,0.289365,0,6,6,5,1,Stimuli/practiceStimuliSquare/practice2_s.png,Stimuli/practiceStimuliSquare/practice2_s.png,0,9,0.2593,,,,,,,,,,
,,,,,,,18,female ,B,2020-05-03_22h23.16.793,Remembering_Displays,2020.1.2,MacIntel,60,9,1,1,1,0.085705,0,7,7,7,1,Stimuli/practiceStimuliSquare/practice4_s.png,Stimuli/practiceStimuliSquare/practice4_s.png,0,9,0.15473,,,,,,,,,,
,,,,,,,18,female ,B,2020-05-03_22h23.16.793,Remembering_Displays,2020.1.2,MacIntel,60,,,,,,,,,,,,,,,,0,2,2,2,1,Stimuli/practiceListSquares.xlsx,Instructions/instr_practice_A.png,Practice trials completed,,
,,,,,,,18,female ,B,2020-05-03_22h23.16.793,Remembering_Displays,2020.1.2,MacIntel,60,,0,1,0,0.710585,0,0,0,19,1,Stimuli/testStimuliSquare/6u_s_22_s_2D.png,Stimuli/testStimuliSquare/6u_d_22_s_2D.png,1,1,,,,,,,,,,s,2D
,,,,,,,18,female ,B,2020-05-03_22h23.16.793,Remembering_Displays,2020.1.2,MacIntel,60,1,1,1,1,1.099355,0,1,1,13,1,Stimuli/testStimuliSquare/6u_s_19_s_2D.png,Stimuli/testStimuliSquare/6u_d_19_s_2D.png,1,1,0.23396,,,,,,,,,s,2D
,,,,,,,18,female ,B,2020-05-03_22h23.16.793,Remembering_Displays,2020.1.2,MacIntel,60,9,0,9,1,0.184365,0,2,2,21,1,Stimuli/testStimuliSquare/6u_s_23_s_2D.png,Stimuli/testStimuliSquare/6u_d_23_s_2D.png,1,1,0.126225,,,,,,,,,s,2D
,,,,,,,18,female ,B,2020-05-03_22h23.16.793,Remembering_Displays,2020.1.2,MacIntel,60,9,0,9,1,0.067695,0,3,3,17,1,Stimuli/testStimuliSquare/6u_s_21_s_2D.png,Stimuli/testStimuliSquare/6u_d_21_s_2D.png,1,1,0.06904,,,,,,,,,s,2D
,,,,,,,18,female ,B,2020-05-03_22h23.16.793,Remembering_Displays,2020.1.2,MacIntel,60,,0,1,1,1.209235,0,4,4,18,1,Stimuli/testStimuliSquare/6u_s_22_s_2D.png,Stimuli/testStimuliSquare/6u_s_22_s_2D.png,0,9,,,,,,,,,,s,2D
,,,,,,,18,female ,B,2020-05-03_22h23.16.793,Remembering_Displays,2020.1.2,MacIntel,60,1,1,1,0,0.066225,0,5,5,3,1,Stimuli/testStimuliSquare/6u_s_20_2D.png,Stimuli/testStimuliSquare/6u_d_20_2D.png,1,1,0.297835,,,,,,,,,c,2D
,,,,,,,18,female ,B,2020-05-03_22h23.16.793,Remembering_Displays,2020.1.2,MacIntel,60,1,1,1,1,0.101765,0,6,6,11,1,Stimuli/testStimuliSquare/6u_s_24_2D.png,Stimuli/testStimuliSquare/6u_d_24_2D.png,1,1,0.186685,,,,,,,,,c,2D
,,,,,,,18,female ,B,2020-05-03_22h23.16.793,Remembering_Displays,2020.1.2,MacIntel,60,9,1,9,0,0.3769,0,7,7,0,1,Stimuli/testStimuliSquare/6u_s_19_2D.png,Stimuli/testStimuliSquare/6u_s_19_2D.png,0,9,0.97493,,,,,,,,,c,2D
,,,,,,,18,female ,B,2020-05-03_22h23.16.793,Remembering_Displays,2020.1.2,MacIntel,60,1,0,1,0,0.5849,0,8,8,4,1,Stimuli/testStimuliSquare/6u_s_21_2D.png,Stimuli/testStimuliSquare/6u_s_21_2D.png,0,9,0.114045,,,,,,,,,c,2D
,,,,,,,18,female ,B,2020-05-03_22h23.16.793,Remembering_Displays,2020.1.2,MacIntel,60,9,1,1,0,0.354585,0,9,9,20,1,Stimuli/testStimuliSquare/6u_s_23_s_2D.png,Stimuli/testStimuliSquare/6u_s_23_s_2D.png,0,9,0.588885,,,,,,,,,s,2D
,,,,,,,18,female ,B,2020-05-03_22h23.16.793,Remembering_Displays,2020.1.2,MacIntel,60,9,1,9,0,0.255505,0,10,10,6,1,Stimuli/testStimuliSquare/6u_s_22_2D.png,Stimuli/testStimuliSquare/6u_s_22_2D.png,0,9,0.090415,,,,,,,,,c,2D
,,,,,,,18,female ,B,2020-05-03_22h23.16.793,Remembering_Displays,2020.1.2,MacIntel,60,1,0,1,1,0.58399,0,11,11,12,1,Stimuli/testStimuliSquare/6u_s_19_s_2D.png,Stimuli/testStimuliSquare/6u_s_19_s_2D.png,0,9,0.38931,,,,,,,,,s,2D
,,,,,,,18,female ,B,2020-05-03_22h23.16.793,Remembering_Displays,2020.1.2,MacIntel,60,9,1,9,0,0.40382,0,12,12,22,1,Stimuli/testStimuliSquare/6u_s_24_s_2D.png,Stimuli/testStimuliSquare/6u_s_24_s_2D.png,0,9,0.020005,,,,,,,,,s,2D
,,,,,,,18,female ,B,2020-05-03_22h23.16.793,Remembering_Displays,2020.1.2,MacIntel,60,9,0,9,0,0.055005,0,13,13,15,1,Stimuli/testStimuliSquare/6u_s_20_s_2D.png,Stimuli/testStimuliSquare/6u_d_20_s_2D.png,1,1,0.296645,,,,,,,,,s,2D
,,,,,,,18,female ,B,2020-05-03_22h23.16.793,Remembering_Displays,2020.1.2,MacIntel,60,9,0,9,1,0.433685,0,14,14,1,1,Stimuli/testStimuliSquare/6u_s_19_2D.png,Stimuli/testStimuliSquare/6u_d_19_2D.png,1,1,0.21813,,,,,,,,,c,2D
,,,,,,,18,female ,B,2020-05-03_22h23.16.793,Remembering_Displays,2020.1.2,MacIntel,60,9,0,9,1,0.084065,0,15,15,9,1,Stimuli/testStimuliSquare/6u_s_23_2D.png,Stimuli/testStimuliSquare/6u_d_23_2D.png,1,1,0.14969,,,,,,,,,c,2D
,,,,,,,18,female ,B,2020-05-03_22h23.16.793,Remembering_Displays,2020.1.2,MacIntel,60,,0,9,1,0.285845,0,16,16,2,1,Stimuli/testStimuliSquare/6u_s_20_2D.png,Stimuli/testStimuliSquare/6u_s_20_2D.png,0,9,,,,,,,,,,c,2D
,,,,,,,18,female ,B,2020-05-03_22h23.16.793,Remembering_Displays,2020.1.2,MacIntel,60,9,1,9,0,0.01434,0,17,17,8,1,Stimuli/testStimuliSquare/6u_s_23_2D.png,Stimuli/testStimuliSquare/6u_s_23_2D.png,0,9,0.506145,,,,,,,,,c,2D
,,,,,,,18,female ,B,2020-05-03_22h23.16.793,Remembering_Displays,2020.1.2,MacIntel,60,9,0,9,0,0.055445,0,18,18,5,1,Stimuli/testStimuliSquare/6u_s_21_2D.png,Stimuli/testStimuliSquare/6u_d_21_2D.png,1,1,0.439395,,,,,,,,,c,2D
,,,,,,,18,female ,B,2020-05-03_22h23.16.793,Remembering_Displays,2020.1.2,MacIntel,60,9,1,9,0,0.05652,0,19,19,16,1,Stimuli/testStimuliSquare/6u_s_21_s_2D.png,Stimuli/testStimuliSquare/6u_s_21_s_2D.png,0,9,0.140935,,,,,,,,,s,2D
,,,,,,,18,female ,B,2020-05-03_22h23.16.793,Remembering_Displays,2020.1.2,MacIntel,60,9,0,9,0,0.04988,0,20,20,23,1,Stimuli/testStimuliSquare/6u_s_24_s_2D.png,Stimuli/testStimuliSquare/6u_d_24_s_2D.png,1,1,0.321885,,,,,,,,,s,2D
,,,,,,,18,female ,B,2020-05-03_22h23.16.793,Remembering_Displays,2020.1.2,MacIntel,60,9,1,9,1,0.44359,0,21,21,14,1,Stimuli/testStimuliSquare/6u_s_20_s_2D.png,Stimuli/testStimuliSquare/6u_s_20_s_2D.png,0,9,0.494955,,,,,,,,,s,2D
,,,,,,,18,female ,B,2020-05-03_22h23.16.793,Remembering_Displays,2020.1.2,MacIntel,60,,0,1,0,1.94206,0,22,22,10,1,Stimuli/testStimuliSquare/6u_s_24_2D.png,Stimuli/testStimuliSquare/6u_s_24_2D.png,0,9,,,,,,,,,,c,2D
,,,,,,,18,female ,B,2020-05-03_22h23.16.793,Remembering_Displays,2020.1.2,MacIntel,60,1,1,9,0,0.30179,0,23,23,7,1,Stimuli/testStimuliSquare/6u_s_22_2D.png,Stimuli/testStimuliSquare/6u_d_22_2D.png,1,1,1.022715,,,,,,,,,c,2D
,,,,,,,18,female ,B,2020-05-03_22h23.16.793,Remembering_Displays,2020.1.2,MacIntel,60,,,,,,,,,,,,,,,,0,3,3,3,1,Stimuli/trialListSquares4.xlsx,Instructions/instr_18.png,Progress: 48 of 192 trials completed,,
,,,,,,,18,female ,B,2020-05-03_22h23.16.793,Remembering_Displays,2020.1.2,MacIntel,60,9,1,9,1,0.134975,0,0,0,0,1,Stimuli/testStimuliCube/6u_s_7.png,Stimuli/testStimuliCube/6u_s_7.png,0,9,0.351215,,,,,,,,,c,3D
,,,,,,,18,female ,B,2020-05-03_22h23.16.793,Remembering_Displays,2020.1.2,MacIntel,60,,0,9,1,0.43759,0,1,1,16,1,Stimuli/testStimuliCube/6u_s_9_s.png,Stimuli/testStimuliCube/6u_s_9_s.png,0,9,,,,,,,,,,s,3D
,,,,,,,18,female ,B,2020-05-03_22h23.16.793,Remembering_Displays,2020.1.2,MacIntel,60,9,0,9,0,0.21603,0,2,2,13,1,Stimuli/testStimuliCube/6u_s_7_s.png,Stimuli/testStimuliCube/6u_d_7_s.png,1,1,0.068035,,,,,,,,,s,3D
,,,,,,,18,female ,B,2020-05-03_22h23.16.793,Remembering_Displays,2020.1.2,MacIntel,60,,0,9,0,0.07487,0,3,3,1,1,Stimuli/testStimuliCube/6u_s_7.png,Stimuli/testStimuliCube/6u_d_7.png,1,1,,,,,,,,,,c,3D
,,,,,,,18,female ,B,2020-05-03_22h23.16.793,Remembering_Displays,2020.1.2,MacIntel,60,1,1,1,1,0.3961,0,4,4,19,1,Stimuli/testStimuliCube/6u_s_10_s.png,Stimuli/testStimuliCube/6u_d_10_s.png,1,1,0.532945,,,,,,,,,s,3D
,,,,,,,18,female ,B,2020-05-03_22h23.16.793,Remembering_Displays,2020.1.2,MacIntel,60,1,1,1,0,0.22085,0,5,5,15,1,Stimuli/testStimuliCube/6u_s_8_s.png,Stimuli/testStimuliCube/6u_d_8_s.png,1,1,1.09752,,,,,,,,,s,3D
,,,,,,,18,female ,B,2020-05-03_22h23.16.793,Remembering_Displays,2020.1.2,MacIntel,60,1,0,1,1,0.187815,0,6,6,18,1,Stimuli/testStimuliCube/6u_s_10_s.png,Stimuli/testStimuliCube/6u_s_10_s.png,0,9,0.00055,,,,,,,,,s,3D
,,,,,,,18,female ,B,2020-05-03_22h23.16.793,Remembering_Displays,2020.1.2,MacIntel,60,,0,1,1,0.26772,0,7,7,10,1,Stimuli/testStimuliCube/6u_s_12.png,Stimuli/testStimuliCube/6u_s_12.png,0,9,,,,,,,,,,c,3D
,,,,,,,18,female ,B,2020-05-03_22h23.16.793,Remembering_Displays,2020.1.2,MacIntel,60,,0,9,0,53.41638,0,8,8,4,1,Stimuli/testStimuliCube/6u_s_9.png,Stimuli/testStimuliCube/6u_s_9.png,0,9,,,,,,,,,,c,3D
,,,,,,,18,female ,B,2020-05-03_22h23.16.793,Remembering_Displays,2020.1.2,MacIntel,60,,0,9,1,0.717745,0,9,9,17,1,Stimuli/testStimuliCube/6u_s_9_s.png,Stimuli/testStimuliCube/6u_d_9_s.png,1,1,,,,,,,,,,s,3D
,,,,,,,18,female ,B,2020-05-03_22h23.16.793,Remembering_Displays,2020.1.2,MacIntel,60,,0,9,1,0.925265,0,10,10,21,1,Stimuli/testStimuliCube/6u_s_11_s.png,Stimuli/testStimuliCube/6u_d_11_s.png,1,1,,,,,,,,,,s,3D
,,,,,,,18,female ,B,2020-05-03_22h23.16.793,Remembering_Displays,2020.1.2,MacIntel,60,,0,1,0,1.09393,0,11,11,2,1,Stimuli/testStimuliCube/6u_s_8.png,Stimuli/testStimuliCube/6u_s_8.png,0,9,,,,,,,,,,c,3D
,,,,,,,18,female ,B,2020-05-03_22h23.16.793,Remembering_Displays,2020.1.2,MacIntel,60,1,0,9,0,0.25237,0,12,12,12,1,Stimuli/testStimuliCube/6u_s_7_s.png,Stimuli/testStimuliCube/6u_s_7_s.png,0,9,0.05277,,,,,,,,,s,3D
,,,,,,,18,female ,B,2020-05-03_22h23.16.793,Remembering_Displays,2020.1.2,MacIntel,60,1,1,9,0,1.769535,0,13,13,3,1,Stimuli/testStimuliCube/6u_s_8.png,Stimuli/testStimuliCube/6u_d_8.png,1,1,0.7005,,,,,,,,,c,3D
,,,,,,,18,female ,B,2020-05-03_22h23.16.793,Remembering_Displays,2020.1.2,MacIntel,60,1,1,9,1,0.58388,0,14,14,7,1,Stimuli/testStimuliCube/6u_s_10.png,Stimuli/testStimuliCube/6u_d_10.png,1,1,0.70051,,,,,,,,,c,3D
,,,,,,,18,female ,B,2020-05-03_22h23.16.793,Remembering_Displays,2020.1.2,MacIntel,60,1,0,1,1,0.250965,0,15,15,6,1,Stimuli/testStimuliCube/6u_s_10.png,Stimuli/testStimuliCube/6u_s_10.png,0,9,0.22269,,,,,,,,,c,3D
,,,,,,,18,female ,B,2020-05-03_22h23.16.793,Remembering_Displays,2020.1.2,MacIntel,60,9,1,9,1,0.201145,0,16,16,14,1,Stimuli/testStimuliCube/6u_s_8_s.png,Stimuli/testStimuliCube/6u_s_8_s.png,0,9,0.07866,,,,,,,,,s,3D
,,,,,,,18,female ,B,2020-05-03_22h23.16.793,Remembering_Displays,2020.1.2,MacIntel,60,1,0,1,1,0.570485,0,17,17,8,1,Stimuli/testStimuliCube/6u_s_11.png,Stimuli/testStimuliCube/6u_s_11.png,0,9,0.58716,,,,,,,,,c,3D
,,,,,,,18,female ,B,2020-05-03_22h23.16.793,Remembering_Displays,2020.1.2,MacIntel,60,9,0,1,0,0.51734,0,18,18,11,1,Stimuli/testStimuliCube/6u_s_12.png,Stimuli/testStimuliCube/6u_d_12.png,1,1,0.71397,,,,,,,,,c,3D
,,,,,,,18,female ,B,2020-05-03_22h23.16.793,Remembering_Displays,2020.1.2,MacIntel,60,9,1,9,1,0.21845,0,19,19,20,1,Stimuli/testStimuliCube/6u_s_11_s.png,Stimuli/testStimuliCube/6u_s_11_s.png,0,9,0.14793,,,,,,,,,s,3D
,,,,,,,18,female ,B,2020-05-03_22h23.16.793,Remembering_Displays,2020.1.2,MacIntel,60,9,0,9,0,0.490265,0,20,20,9,1,Stimuli/testStimuliCube/6u_s_11.png,Stimuli/testStimuliCube/6u_d_11.png,1,1,0.17966,,,,,,,,,c,3D
,,,,,,,18,female ,B,2020-05-03_22h23.16.793,Remembering_Displays,2020.1.2,MacIntel,60,,0,1,1,1.24704,0,21,21,23,1,Stimuli/testStimuliCube/6u_s_12_s.png,Stimuli/testStimuliCube/6u_d_12_s.png,1,1,,,,,,,,,,s,3D
,,,,,,,18,female ,B,2020-05-03_22h23.16.793,Remembering_Displays,2020.1.2,MacIntel,60,1,1,1,1,0.409475,0,22,22,5,1,Stimuli/testStimuliCube/6u_s_9.png,Stimuli/testStimuliCube/6u_d_9.png,1,1,0.668085,,,,,,,,,c,3D
,,,,,,,18,female ,B,2020-05-03_22h23.16.793,Remembering_Displays,2020.1.2,MacIntel,60,1,0,9,0,0.283995,0,23,23,22,1,Stimuli/testStimuliCube/6u_s_12_s.png,Stimuli/testStimuliCube/6u_s_12_s.png,0,9,0.51328,,,,,,,,,s,3D
,,,,,,,18,female ,B,2020-05-03_22h23.16.793,Remembering_Displays,2020.1.2,MacIntel,60,,,,,,,,,,,,,,,,0,4,4,4,1,Stimuli/trialListCubes2.xlsx,Instructions/instr_19.png,Progress: 72 of 192 trials completed,,
,,,,,,,18,female ,B,2020-05-03_22h23.16.793,Remembering_Displays,2020.1.2,MacIntel,60,1,0,9,0,0.216945,0,0,0,8,1,Stimuli/testStimuliSquare/6u_s_17_2D.png,Stimuli/testStimuliSquare/6u_s_17_2D.png,0,9,0.18855,,,,,,,,,c,2D
,,,,,,,18,female ,B,2020-05-03_22h23.16.793,Remembering_Displays,2020.1.2,MacIntel,60,,0,9,1,0.66658,0,1,1,19,1,Stimuli/testStimuliSquare/6u_s_16_s_2D.png,Stimuli/testStimuliSquare/6u_d_16_s_2D.png,1,1,,,,,,,,,,s,2D
,,,,,,,18,female ,B,2020-05-03_22h23.16.793,Remembering_Displays,2020.1.2,MacIntel,60,9,0,9,0,0.00074,0,2,2,5,1,Stimuli/testStimuliSquare/6u_s_15_2D.png,Stimuli/testStimuliSquare/6u_d_15_2D.png,1,1,0.084895,,,,,,,,,c,2D
,,,,,,,18,female ,B,2020-05-03_22h23.16.793,Remembering_Displays,2020.1.2,MacIntel,60,9,0,9,1,0.02164,0,3,3,9,1,Stimuli/testStimuliSquare/6u_s_17_2D.png,Stimuli/testStimuliSquare/6u_d_17_2D.png,1,1,0.120075,,,,,,,,,c,2D
,,,,,,,18,female ,B,2020-05-03_22h23.16.793,Remembering_Displays,2020.1.2,MacIntel,60,9,1,9,1,0.000785,0,4,4,2,1,Stimuli/testStimuliSquare/6u_s_14_2D.png,Stimuli/testStimuliSquare/6u_s_14_2D.png,0,9,0.17858,,,,,,,,,c,2D
,,,,,,,18,female ,B,2020-05-03_22h23.16.793,Remembering_Displays,2020.1.2,MacIntel,60,9,1,9,1,0.61613,0,5,5,16,1,Stimuli/testStimuliSquare/6u_s_15_s_2D.png,Stimuli/testStimuliSquare/6u_s_15_s_2D.png,0,9,0.594365,,,,,,,,,s,2D
,,,,,,,18,female ,B,2020-05-03_22h23.16.793,Remembering_Displays,2020.1.2,MacIntel,60,,0,1,1,1.97914,0,6,6,12,1,Stimuli/testStimuliSquare/6u_s_13_s_2D.png,Stimuli/testStimuliSquare/6u_s_13_s_2D.png,0,9,,,,,,,,,,s,2D
,,,,,,,18,female ,B,2020-05-03_22h23.16.793,Remembering_Displays,2020.1.2,MacIntel,60,,0,9,0,0.4245,0,7,7,3,1,Stimuli/testStimuliSquare/6u_s_14_2D.png,Stimuli/testStimuliSquare/6u_d_14_2D.png,1,1,,,,,,,,,,c,2D
,,,,,,,18,female ,B,2020-05-03_22h23.16.793,Remembering_Displays,2020.1.2,MacIntel,60,9,0,9,0,0.618985,0,8,8,17,1,Stimuli/testStimuliSquare/6u_s_15_s_2D.png,Stimuli/testStimuliSquare/6u_d_15_s_2D.png,1,1,0.76153,,,,,,,,,s,2D
,,,,,,,18,female ,B,2020-05-03_22h23.16.793,Remembering_Displays,2020.1.2,MacIntel,60,9,1,9,0,0.112675,0,9,9,4,1,Stimuli/testStimuliSquare/6u_s_15_2D.png,Stimuli/testStimuliSquare/6u_s_15_2D.png,0,9,0.39972,,,,,,,,,c,2D
,,,,,,,18,female ,B,2020-05-03_22h23.16.793,Remembering_Displays,2020.1.2,MacIntel,60,9,0,1,1,0.67611,0,10,10,21,1,Stimuli/testStimuliSquare/6u_s_17_s_2D.png,Stimuli/testStimuliSquare/6u_d_17_s_2D.png,1,1,0.715725,,,,,,,,,s,2D
,,,,,,,18,female ,B,2020-05-03_22h23.16.793,Remembering_Displays,2020.1.2,MacIntel,60,9,1,9,0,0.449835,0,11,11,10,1,Stimuli/testStimuliSquare/6u_s_18_2D.png,Stimuli/testStimuliSquare/6u_s_18_2D.png,0,9,0.44226,,,,,,,,,c,2D
,,,,,,,18,female ,B,2020-05-03_22h23.16.793,Remembering_Displays,2020.1.2,MacIntel,60,1,1,9,1,0.43392,0,12,12,23,1,Stimuli/testStimuliSquare/6u_s_18_s_2D.png,Stimuli/testStimuliSquare/6u_d_18_s_2D.png,1,1,0.506255,,,,,,,,,s,2D
,,,,,,,18,female ,B,2020-05-03_22h23.16.793,Remembering_Displays,2020.1.2,MacIntel,60,9,0,9,1,0.53414,0,13,13,13,1,Stimuli/testStimuliSquare/6u_s_13_s_2D.png,Stimuli/testStimuliSquare/6u_d_13_s_2D.png,1,1,0.417655,,,,,,,,,s,2D
,,,,,,,18,female ,B,2020-05-03_22h23.16.793,Remembering_Displays,2020.1.2,MacIntel,60,9,0,1,1,0.862285,0,14,14,7,1,Stimuli/testStimuliSquare/6u_s_16_2D.png,Stimuli/testStimuliSquare/6u_d_16_2D.png,1,1,0.337745,,,,,,,,,c,2D
,,,,,,,18,female ,B,2020-05-03_22h23.16.793,Remembering_Displays,2020.1.2,MacIntel,60,9,1,1,1,0.483115,0,15,15,20,1,Stimuli/testStimuliSquare/6u_s_17_s_2D.png,Stimuli/testStimuliSquare/6u_s_17_s_2D.png,0,9,1.045315,,,,,,,,,s,2D
,,,,,,,18,female ,B,2020-05-03_22h23.16.793,Remembering_Displays,2020.1.2,MacIntel,60,9,0,9,1,1.63255,0,16,16,11,1,Stimuli/testStimuliSquare/6u_s_18_2D.png,Stimuli/testStimuliSquare/6u_d_18_2D.png,1,1,0.220685,,,,,,,,,c,2D
,,,,,,,18,female ,B,2020-05-03_22h23.16.793,Remembering_Displays,2020.1.2,MacIntel,60,,0,9,1,1.073325,0,17,17,22,1,Stimuli/testStimuliSquare/6u_s_18_s_2D.png,Stimuli/testStimuliSquare/6u_s_18_s_2D.png,0,9,,,,,,,,,,s,2D
,,,,,,,18,female ,B,2020-05-03_22h23.16.793,Remembering_Displays,2020.1.2,MacIntel,60,9,1,9,1,0.65717,0,18,18,14,1,Stimuli/testStimuliSquare/6u_s_14_s_2D.png,Stimuli/testStimuliSquare/6u_s_14_s_2D.png,0,9,0.391205,,,,,,,,,s,2D
,,,,,,,18,female ,B,2020-05-03_22h23.16.793,Remembering_Displays,2020.1.2,MacIntel,60,9,0,1,1,0.103345,0,19,19,15,1,Stimuli/testStimuliSquare/6u_s_14_s_2D.png,Stimuli/testStimuliSquare/6u_d_14_s_2D.png,1,1,0.114995,,,,,,,,,s,2D
,,,,,,,18,female ,B,2020-05-03_22h23.16.793,Remembering_Displays,2020.1.2,MacIntel,60,,0,9,1,2.31398,0,20,20,0,1,Stimuli/testStimuliSquare/6u_s_13_2D.png,Stimuli/testStimuliSquare/6u_s_13_2D.png,0,9,,,,,,,,,,c,2D
,,,,,,,18,female ,B,2020-05-03_22h23.16.793,Remembering_Displays,2020.1.2,MacIntel,60,9,1,1,0,0.42371,0,21,21,18,1,Stimuli/testStimuliSquare/6u_s_16_s_2D.png,Stimuli/testStimuliSquare/6u_s_16_s_2D.png,0,9,0.189955,,,,,,,,,s,2D
,,,,,,,18,female ,B,2020-05-03_22h23.16.793,Remembering_Displays,2020.1.2,MacIntel,60,9,0,1,1,0.362135,0,22,22,1,1,Stimuli/testStimuliSquare/6u_s_13_2D.png,Stimuli/testStimuliSquare/6u_d_13_2D.png,1,1,0.091155,,,,,,,,,c,2D
,,,,,,,18,female ,B,2020-05-03_22h23.16.793,Remembering_Displays,2020.1.2,MacIntel,60,9,1,9,0,0.03528,0,23,23,6,1,Stimuli/testStimuliSquare/6u_s_16_2D.png,Stimuli/testStimuliSquare/6u_s_16_2D.png,0,9,0.449975,,,,,,,,,c,2D
,,,,,,,18,female ,B,2020-05-03_22h23.16.793,Remembering_Displays,2020.1.2,MacIntel,60,,,,,,,,,,,,,,,,0,5,5,5,1,Stimuli/trialListSquares3.xlsx,Instructions/instr_18.png,Progress: 96 of 192 trials completed,,
,,,,,,,18,female ,B,2020-05-03_22h23.16.793,Remembering_Displays,2020.1.2,MacIntel,60,1,1,1,0,0.485165,0,0,0,17,1,Stimuli/testStimuliCube/6u_s_15_s.png,Stimuli/testStimuliCube/6u_d_15_s.png,1,1,0.6318,,,,,,,,,s,3D
,,,,,,,18,female ,B,2020-05-03_22h23.16.793,Remembering_Displays,2020.1.2,MacIntel,60,1,1,9,0,0.30049,0,1,1,7,1,Stimuli/testStimuliCube/6u_s_16.png,Stimuli/testStimuliCube/6u_d_16.png,1,1,1.11,,,,,,,,,c,3D
,,,,,,,18,female ,B,2020-05-03_22h23.16.793,Remembering_Displays,2020.1.2,MacIntel,60,9,1,9,1,0.943065,0,2,2,14,1,Stimuli/testStimuliCube/6u_s_14_s.png,Stimuli/testStimuliCube/6u_s_14_s.png,0,9,0.63751,,,,,,,,,s,3D
,,,,,,,18,female ,B,2020-05-03_22h23.16.793,Remembering_Displays,2020.1.2,MacIntel,60,1,0,9,1,0.00047,0,3,3,20,1,Stimuli/testStimuliCube/6u_s_17_s.png,Stimuli/testStimuliCube/6u_s_17_s.png,0,9,0.414045,,,,,,,,,s,3D
,,,,,,,18,female ,B,2020-05-03_22h23.16.793,Remembering_Displays,2020.1.2,MacIntel,60,1,0,9,0,0.223055,0,4,4,2,1,Stimuli/testStimuliCube/6u_s_14.png,Stimuli/testStimuliCube/6u_s_14.png,0,9,0.97036,,,,,,,,,c,3D
,,,,,,,18,female ,B,2020-05-03_22h23.16.793,Remembering_Displays,2020.1.2,MacIntel,60,9,1,1,1,1.2472,0,5,5,18,1,Stimuli/testStimuliCube/6u_s_16_s.png,Stimuli/testStimuliCube/6u_s_16_s.png,0,9,0.573755,,,,,,,,,s,3D
,,,,,,,18,female ,B,2020-05-03_22h23.16.793,Remembering_Displays,2020.1.2,MacIntel,60,9,0,1,1,0.486515,0,6,6,1,1,Stimuli/testStimuliCube/6u_s_13.png,Stimuli/testStimuliCube/6u_d_13.png,1,1,1.23391,,,,,,,,,c,3D
,,,,,,,18,female ,B,2020-05-03_22h23.16.793,Remembering_Displays,2020.1.2,MacIntel,60,1,0,9,0,1.30135,0,7,7,4,1,Stimuli/testStimuliCube/6u_s_15.png,Stimuli/testStimuliCube/6u_s_15.png,0,9,0.525445,,,,,,,,,c,3D
,,,,,,,18,female ,B,2020-05-03_22h23.16.793,Remembering_Displays,2020.1.2,MacIntel,60,1,0,9,0,0.10016,0,8,8,22,1,Stimuli/testStimuliCube/6u_s_18_s.png,Stimuli/testStimuliCube/6u_s_18_s.png,0,9,0.23939,,,,,,,,,s,3D
,,,,,,,18,female ,B,2020-05-03_22h23.16.793,Remembering_Displays,2020.1.2,MacIntel,60,9,0,9,0,0.00071,0,9,9,13,1,Stimuli/testStimuliCube/6u_s_13_s.png,Stimuli/testStimuliCube/6u_d_13_s.png,1,1,0.201325,,,,,,,,,s,3D
,,,,,,,18,female ,B,2020-05-03_22h23.16.793,Remembering_Displays,2020.1.2,MacIntel,60,1,1,1,1,0.671455,0,10,10,21,1,Stimuli/testStimuliCube/6u_s_17_s.png,Stimuli/testStimuliCube/6u_d_17_s.png,1,1,0.557575,,,,,,,,,s,3D
,,,,,,,18,female ,B,2020-05-03_22h23.16.793,Remembering_Displays,2020.1.2,MacIntel,60,9,1,1,0,0.86633,0,11,11,10,1,Stimuli/testStimuliCube/6u_s_18.png,Stimuli/testStimuliCube/6u_s_18.png,0,9,0.438065,,,,,,,,,c,3D
,,,,,,,18,female ,B,2020-05-03_22h23.16.793,Remembering_Displays,2020.1.2,MacIntel,60,9,0,1,1,0.82213,0,12,12,23,1,Stimuli/testStimuliCube/6u_s_18_s.png,Stimuli/testStimuliCube/6u_d_18_s.png,1,1,0.49397,,,,,,,,,s,3D
,,,,,,,18,female ,B,2020-05-03_22h23.16.793,Remembering_Displays,2020.1.2,MacIntel,60,1,0,1,1,0.23931,0,13,13,0,1,Stimuli/testStimuliCube/6u_s_13.png,Stimuli/testStimuliCube/6u_s_13.png,0,9,0.658305,,,,,,,,,c,3D
,,,,,,,18,female ,B,2020-05-03_22h23.16.793,Remembering_Displays,2020.1.2,MacIntel,60,1,1,9,0,0.661055,0,14,14,19,1,Stimuli/testStimuliCube/6u_s_16_s.png,Stimuli/testStimuliCube/6u_d_16_s.png,1,1,0.902535,,,,,,,,,s,3D
,,,,,,,18,female ,B,2020-05-03_22h23.16.793,Remembering_Displays,2020.1.2,MacIntel,60,1,0,9,0,1.70222,0,15,15,8,1,Stimuli/testStimuliCube/6u_s_17.png,Stimuli/testStimuliCube/6u_s_17.png,0,9,0.275105,,,,,,,,,c,3D
,,,,,,,18,female ,B,2020-05-03_22h23.16.793,Remembering_Displays,2020.1.2,MacIntel,60,9,1,1,1,0.909025,0,16,16,16,1,Stimuli/testStimuliCube/6u_s_15_s.png,Stimuli/testStimuliCube/6u_s_15_s.png,0,9,0.473285,,,,,,,,,s,3D
,,,,,,,18,female ,B,2020-05-03_22h23.16.793,Remembering_Displays,2020.1.2,MacIntel,60,9,0,1,1,0.65461,0,17,17,3,1,Stimuli/testStimuliCube/6u_s_14.png,Stimuli/testStimuliCube/6u_d_14.png,1,1,0.413425,,,,,,,,,c,3D
,,,,,,,18,female ,B,2020-05-03_22h23.16.793,Remembering_Displays,2020.1.2,MacIntel,60,,0,9,1,8.17087,0,18,18,15,1,Stimuli/testStimuliCube/6u_s_14_s.png,Stimuli/testStimuliCube/6u_d_14_s.png,1,1,,,,,,,,,,s,3D
,,,,,,,18,female ,B,2020-05-03_22h23.16.793,Remembering_Displays,2020.1.2,MacIntel,60,1,1,1,0,0.279585,0,19,19,9,1,Stimuli/testStimuliCube/6u_s_17.png,Stimuli/testStimuliCube/6u_d_17.png,1,1,0.629615,,,,,,,,,c,3D
,,,,,,,18,female ,B,2020-05-03_22h23.16.793,Remembering_Displays,2020.1.2,MacIntel,60,9,0,9,1,0.332975,0,20,20,5,1,Stimuli/testStimuliCube/6u_s_15.png,Stimuli/testStimuliCube/6u_d_15.png,1,1,0.03052,,,,,,,,,c,3D
,,,,,,,18,female ,B,2020-05-03_22h23.16.793,Remembering_Displays,2020.1.2,MacIntel,60,9,1,1,1,0.85599,0,21,21,12,1,Stimuli/testStimuliCube/6u_s_13_s.png,Stimuli/testStimuliCube/6u_s_13_s.png,0,9,0.544105,,,,,,,,,s,3D
,,,,,,,18,female ,B,2020-05-03_22h23.16.793,Remembering_Displays,2020.1.2,MacIntel,60,9,1,1,0,1.258745,0,22,22,6,1,Stimuli/testStimuliCube/6u_s_16.png,Stimuli/testStimuliCube/6u_s_16.png,0,9,0.169435,,,,,,,,,c,3D
,,,,,,,18,female ,B,2020-05-03_22h23.16.793,Remembering_Displays,2020.1.2,MacIntel,60,9,0,9,0,0.38443,0,23,23,11,1,Stimuli/testStimuliCube/6u_s_18.png,Stimuli/testStimuliCube/6u_d_18.png,1,1,0.199905,,,,,,,,,c,3D
,,,,,,,18,female ,B,2020-05-03_22h23.16.793,Remembering_Displays,2020.1.2,MacIntel,60,,,,,,,,,,,,,,,,0,6,6,6,1,Stimuli/trialListCubes3.xlsx,Instructions/instr_19.png,Progress: 120 of 192 trials completed,,
,,,,,,,18,female ,B,2020-05-03_22h23.16.793,Remembering_Displays,2020.1.2,MacIntel,60,1,1,1,0,0.885795,0,0,0,3,1,Stimuli/testStimuliSquare/6u_s_8_2D.png,Stimuli/testStimuliSquare/6u_d_8_2D.png,1,1,0.65756,,,,,,,,,c,2D
,,,,,,,18,female ,B,2020-05-03_22h23.16.793,Remembering_Displays,2020.1.2,MacIntel,60,1,1,9,0,0.47183,0,1,1,1,1,Stimuli/testStimuliSquare/6u_s_7_2D.png,Stimuli/testStimuliSquare/6u_d_7_2D.png,1,1,0.71206,,,,,,,,,c,2D
,,,,,,,18,female ,B,2020-05-03_22h23.16.793,Remembering_Displays,2020.1.2,MacIntel,60,9,1,1,1,0.513105,0,2,2,2,1,Stimuli/testStimuliSquare/6u_s_8_2D.png,Stimuli/testStimuliSquare/6u_s_8_2D.png,0,9,0.563295,,,,,,,,,c,2D
,,,,,,,18,female ,B,2020-05-03_22h23.16.793,Remembering_Displays,2020.1.2,MacIntel,60,1,1,9,1,1.083185,0,3,3,15,1,Stimuli/testStimuliSquare/6u_s_8_s_2D.png,Stimuli/testStimuliSquare/6u_d_8_s_2D.png,1,1,0.49657,,,,,,,,,s,2D
,,,,,,,18,female ,B,2020-05-03_22h23.16.793,Remembering_Displays,2020.1.2,MacIntel,60,9,1,9,1,1.71726,0,4,4,4,1,Stimuli/testStimuliSquare/6u_s_9_2D.png,Stimuli/testStimuliSquare/6u_s_9_2D.png,0,9,0.785825,,,,,,,,,c,2D
,,,,,,,18,female ,B,2020-05-03_22h23.16.793,Remembering_Displays,2020.1.2,MacIntel,60,9,1,1,0,0.64099,0,5,5,14,1,Stimuli/testStimuliSquare/6u_s_8_s_2D.png,Stimuli/testStimuliSquare/6u_s_8_s_2D.png,0,9,0.51125,,,,,,,,,s,2D
,,,,,,,18,female ,B,2020-05-03_22h23.16.793,Remembering_Displays,2020.1.2,MacIntel,60,9,0,9,1,0.80787,0,6,6,11,1,Stimuli/testStimuliSquare/6u_s_12_2D.png,Stimuli/testStimuliSquare/6u_d_12_2D.png,1,1,0.70832,,,,,,,,,c,2D
,,,,,,,18,female ,B,2020-05-03_22h23.16.793,Remembering_Displays,2020.1.2,MacIntel,60,9,0,9,1,3.452465,0,7,7,23,1,Stimuli/testStimuliSquare/6u_s_12_s_2D.png,Stimuli/testStimuliSquare/6u_d_12_s_2D.png,1,1,0.495345,,,,,,,,,s,2D
,,,,,,,18,female ,B,2020-05-03_22h23.16.793,Remembering_Displays,2020.1.2,MacIntel,60,9,1,1,1,1.570515,0,8,8,8,1,Stimuli/testStimuliSquare/6u_s_11_2D.png,Stimuli/testStimuliSquare/6u_s_11_2D.png,0,9,0.522745,,,,,,,,,c,2D
,,,,,,,18,female ,B,2020-05-03_22h23.16.793,Remembering_Displays,2020.1.2,MacIntel,60,9,0,9,0,0.596365,0,9,9,9,1,Stimuli/testStimuliSquare/6u_s_11_2D.png,Stimuli/testStimuliSquare/6u_d_11_2D.png,1,1,1.008205,,,,,,,,,c,2D
,,,,,,,18,female ,B,2020-05-03_22h23.16.793,Remembering_Displays,2020.1.2,MacIntel,60,,0,9,1,0.6553,0,10,10,7,1,Stimuli/testStimuliSquare/6u_s_10_2D.png,Stimuli/testStimuliSquare/6u_d_10_2D.png,1,1,,,,,,,,,,c,2D
,,,,,,,18,female ,B,2020-05-03_22h23.16.793,Remembering_Displays,2020.1.2,MacIntel,60,,0,1,1,0.669465,0,11,11,17,1,Stimuli/testStimuliSquare/6u_s_9_s_2D.png,Stimuli/testStimuliSquare/6u_d_9_s_2D.png,1,1,,,,,,,,,,s,2D
,,,,,,,18,female ,B,2020-05-03_22h23.16.793,Remembering_Displays,2020.1.2,MacIntel,60,1,0,1,1,0.02387,0,12,12,10,1,Stimuli/testStimuliSquare/6u_s_12_2D.png,Stimuli/testStimuliSquare/6u_s_12_2D.png,0,9,0.477025,,,,,,,,,c,2D
,,,,,,,18,female ,B,2020-05-03_22h23.16.793,Remembering_Displays,2020.1.2,MacIntel,60,1,0,1,0,0.74026,0,13,13,20,1,Stimuli/testStimuliSquare/6u_s_11_s_2D.png,Stimuli/testStimuliSquare/6u_s_11_s_2D.png,0,9,0.52764,,,,,,,,,s,2D
,,,,,,,18,female ,B,2020-05-03_22h23.16.793,Remembering_Displays,2020.1.2,MacIntel,60,,0,1,1,1.61938,0,14,14,0,1,Stimuli/testStimuliSquare/6u_s_7_2D.png,Stimuli/testStimuliSquare/6u_s_7_2D.png,0,9,,,,,,,,,,c,2D
,,,,,,,18,female ,B,2020-05-03_22h23.16.793,Remembering_Displays,2020.1.2,MacIntel,60,,0,1,1,6.89959,0,15,15,18,1,Stimuli/testStimuliSquare/6u_s_10_s_2D.png,Stimuli/testStimuliSquare/6u_s_10_s_2D.png,0,9,,,,,,,,,,s,2D
,,,,,,,18,female ,B,2020-05-03_22h23.16.793,Remembering_Displays,2020.1.2,MacIntel,60,1,0,1,1,2.0027,0,16,16,6,1,Stimuli/testStimuliSquare/6u_s_10_2D.png,Stimuli/testStimuliSquare/6u_s_10_2D.png,0,9,0.40533,,,,,,,,,c,2D
,,,,,,,18,female ,B,2020-05-03_22h23.16.793,Remembering_Displays,2020.1.2,MacIntel,60,1,1,1,1,0.816535,0,17,17,21,1,Stimuli/testStimuliSquare/6u_s_11_s_2D.png,Stimuli/testStimuliSquare/6u_d_11_s_2D.png,1,1,0.3353,,,,,,,,,s,2D
,,,,,,,18,female ,B,2020-05-03_22h23.16.793,Remembering_Displays,2020.1.2,MacIntel,60,1,0,1,1,0.313915,0,18,18,22,1,Stimuli/testStimuliSquare/6u_s_12_s_2D.png,Stimuli/testStimuliSquare/6u_s_12_s_2D.png,0,9,0.43194,,,,,,,,,s,2D
,,,,,,,18,female ,B,2020-05-03_22h23.16.793,Remembering_Displays,2020.1.2,MacIntel,60,,0,1,1,1.070835,0,19,19,12,1,Stimuli/testStimuliSquare/6u_s_7_s_2D.png,Stimuli/testStimuliSquare/6u_s_7_s_2D.png,0,9,,,,,,,,,,s,2D
,,,,,,,18,female ,B,2020-05-03_22h23.16.793,Remembering_Displays,2020.1.2,MacIntel,60,1,1,1,1,0.95144,0,20,20,5,1,Stimuli/testStimuliSquare/6u_s_9_2D.png,Stimuli/testStimuliSquare/6u_d_9_2D.png,1,1,1.21746,,,,,,,,,c,2D
,,,,,,,18,female ,B,2020-05-03_22h23.16.793,Remembering_Displays,2020.1.2,MacIntel,60,,0,1,0,0.70809,0,21,21,13,1,Stimuli/testStimuliSquare/6u_s_7_s_2D.png,Stimuli/testStimuliSquare/6u_d_7_s_2D.png,1,1,,,,,,,,,,s,2D
,,,,,,,18,female ,B,2020-05-03_22h23.16.793,Remembering_Displays,2020.1.2,MacIntel,60,1,1,1,1,0.55649,0,22,22,19,1,Stimuli/testStimuliSquare/6u_s_10_s_2D.png,Stimuli/testStimuliSquare/6u_d_10_s_2D.png,1,1,1.330905,,,,,,,,,s,2D
,,,,,,,18,female ,B,2020-05-03_22h23.16.793,Remembering_Displays,2020.1.2,MacIntel,60,1,0,1,1,0.784995,0,23,23,16,1,Stimuli/testStimuliSquare/6u_s_9_s_2D.png,Stimuli/testStimuliSquare/6u_s_9_s_2D.png,0,9,0.80958,,,,,,,,,s,2D
,,,,,,,18,female ,B,2020-05-03_22h23.16.793,Remembering_Displays,2020.1.2,MacIntel,60,,,,,,,,,,,,,,,,0,7,7,7,1,Stimuli/trialListSquares2.xlsx,Instructions/instr_18.png,Progress: 144 of 192 trials completed,,
,,,,,,,18,female ,B,2020-05-03_22h23.16.793,Remembering_Displays,2020.1.2,MacIntel,60,1,0,1,1,6.71628,0,0,0,2,1,Stimuli/testStimuliCube/6u_s_20.png,Stimuli/testStimuliCube/6u_s_20.png,0,9,0.33468,,,,,,,,,c,3D
,,,,,,,18,female ,B,2020-05-03_22h23.16.793,Remembering_Displays,2020.1.2,MacIntel,60,1,1,1,1,0.319495,0,1,1,21,1,Stimuli/testStimuliCube/6u_s_23_s.png,Stimuli/testStimuliCube/6u_d_23_s.png,1,1,0.10237,,,,,,,,,s,3D
,,,,,,,18,female ,B,2020-05-03_22h23.16.793,Remembering_Displays,2020.1.2,MacIntel,60,,0,1,1,0.21642,0,2,2,3,1,Stimuli/testStimuliCube/6u_s_20.png,Stimuli/testStimuliCube/6u_d_20.png,1,1,,,,,,,,,,c,3D
,,,,,,,18,female ,B,2020-05-03_22h23.16.793,Remembering_Displays,2020.1.2,MacIntel,60,1,0,1,1,0.834325,0,3,3,22,1,Stimuli/testStimuliCube/6u_s_24_s.png,Stimuli/testStimuliCube/6u_s_24_s.png,0,9,0.325865,,,,,,,,,s,3D
,,,,,,,18,female ,B,2020-05-03_22h23.16.793,Remembering_Displays,2020.1.2,MacIntel,60,1,1,1,0,0.58304,0,4,4,13,1,Stimuli/testStimuliCube/6u_s_19_s.png,Stimuli/testStimuliCube/6u_d_19_s.png,1,1,0.74793,,,,,,,,,s,3D
,,,,,,,18,female ,B,2020-05-03_22h23.16.793,Remembering_Displays,2020.1.2,MacIntel,60,1,1,1,0,1.389955,0,5,5,7,1,Stimuli/testStimuliCube/6u_s_22.png,Stimuli/testStimuliCube/6u_d_22.png,1,1,0.69607,,,,,,,,,c,3D
,,,,,,,18,female ,B,2020-05-03_22h23.16.793,Remembering_Displays,2020.1.2,MacIntel,60,,0,1,0,0.666945,0,6,6,14,1,Stimuli/testStimuliCube/6u_s_20_s.png,Stimuli/testStimuliCube/6u_s_20_s.png,0,9,,,,,,,,,,s,3D
,,,,,,,18,female ,B,2020-05-03_22h23.16.793,Remembering_Displays,2020.1.2,MacIntel,60,1,1,1,0,2.823555,0,7,7,17,1,Stimuli/testStimuliCube/6u_s_21_s.png,Stimuli/testStimuliCube/6u_d_21_s.png,1,1,0.73971,,,,,,,,,s,3D
,,,,,,,18,female ,B,2020-05-03_22h23.16.793,Remembering_Displays,2020.1.2,MacIntel,60,1,1,1,0,0.550455,0,8,8,9,1,Stimuli/testStimuliCube/6u_s_23.png,Stimuli/testStimuliCube/6u_d_23.png,1,1,1.21443,,,,,,,,,c,3D
,,,,,,,18,female ,B,2020-05-03_22h23.16.793,Remembering_Displays,2020.1.2,MacIntel,60,1,1,1,0,0.61849,0,9,9,1,1,Stimuli/testStimuliCube/6u_s_19.png,Stimuli/testStimuliCube/6u_d_19.png,1,1,1.01396,,,,,,,,,c,3D
,,,,,,,18,female ,B,2020-05-03_22h23.16.793,Remembering_Displays,2020.1.2,MacIntel,60,1,0,1,0,0.884805,0,10,10,16,1,Stimuli/testStimuliCube/6u_s_21_s.png,Stimuli/testStimuliCube/6u_s_21_s.png,0,9,0.99217,,,,,,,,,s,3D
,,,,,,,18,female ,B,2020-05-03_22h23.16.793,Remembering_Displays,2020.1.2,MacIntel,60,,0,1,1,12.50126,0,11,11,0,1,Stimuli/testStimuliCube/6u_s_19.png,Stimuli/testStimuliCube/6u_s_19.png,0,9,,,,,,,,,,c,3D
,,,,,,,18,female ,B,2020-05-03_22h23.16.793,Remembering_Displays,2020.1.2,MacIntel,60,1,0,1,0,1.05198,0,12,12,4,1,Stimuli/testStimuliCube/6u_s_21.png,Stimuli/testStimuliCube/6u_s_21.png,0,9,1.081535,,,,,,,,,c,3D
,,,,,,,18,female ,B,2020-05-03_22h23.16.793,Remembering_Displays,2020.1.2,MacIntel,60,,0,1,0,0.001135,0,13,13,23,1,Stimuli/testStimuliCube/6u_s_24_s.png,Stimuli/testStimuliCube/6u_d_24_s.png,1,1,,,,,,,,,,s,3D
,,,,,,,18,female ,B,2020-05-03_22h23.16.793,Remembering_Displays,2020.1.2,MacIntel,60,1,0,1,1,6.31775,0,14,14,20,1,Stimuli/testStimuliCube/6u_s_23_s.png,Stimuli/testStimuliCube/6u_s_23_s.png,0,9,0.674015,,,,,,,,,s,3D
,,,,,,,18,female ,B,2020-05-03_22h23.16.793,Remembering_Displays,2020.1.2,MacIntel,60,,0,1,1,0.317295,0,15,15,8,1,Stimuli/testStimuliCube/6u_s_23.png,Stimuli/testStimuliCube/6u_s_23.png,0,9,,,,,,,,,,c,3D
,,,,,,,18,female ,B,2020-05-03_22h23.16.793,Remembering_Displays,2020.1.2,MacIntel,60,1,0,1,1,6.422435,0,16,16,18,1,Stimuli/testStimuliCube/6u_s_22_s.png,Stimuli/testStimuliCube/6u_s_22_s.png,0,9,0.569055,,,,,,,,,s,3D
,,,,,,,18,female ,B,2020-05-03_22h23.16.793,Remembering_Displays,2020.1.2,MacIntel,60,1,1,1,0,4.63435,0,17,17,19,1,Stimuli/testStimuliCube/6u_s_22_s.png,Stimuli/testStimuliCube/6u_d_22_s.png,1,1,0.37779,,,,,,,,,s,3D
,,,,,,,18,female ,B,2020-05-03_22h23.16.793,Remembering_Displays,2020.1.2,MacIntel,60,1,1,1,0,0.562335,0,18,18,5,1,Stimuli/testStimuliCube/6u_s_21.png,Stimuli/testStimuliCube/6u_d_21.png,1,1,0.32931,,,,,,,,,c,3D
,,,,,,,18,female ,B,2020-05-03_22h23.16.793,Remembering_Displays,2020.1.2,MacIntel,60,1,1,1,1,0.900795,0,19,19,11,1,Stimuli/testStimuliCube/6u_s_24.png,Stimuli/testStimuliCube/6u_d_24.png,1,1,0.52821,,,,,,,,,c,3D
,,,,,,,18,female ,B,2020-05-03_22h23.16.793,Remembering_Displays,2020.1.2,MacIntel,60,,0,1,0,0.521985,0,20,20,10,1,Stimuli/testStimuliCube/6u_s_24.png,Stimuli/testStimuliCube/6u_s_24.png,0,9,,,,,,,,,,c,3D
,,,,,,,18,female ,B,2020-05-03_22h23.16.793,Remembering_Displays,2020.1.2,MacIntel,60,1,0,1,0,0.77109,0,21,21,6,1,Stimuli/testStimuliCube/6u_s_22.png,Stimuli/testStimuliCube/6u_s_22.png,0,9,0.156895,,,,,,,,,c,3D
,,,,,,,18,female ,B,2020-05-03_22h23.16.793,Remembering_Displays,2020.1.2,MacIntel,60,1,0,1,1,0.65446,0,22,22,12,1,Stimuli/testStimuliCube/6u_s_19_s.png,Stimuli/testStimuliCube/6u_s_19_s.png,0,9,1.05629,,,,,,,,,s,3D
,,,,,,,18,female ,B,2020-05-03_22h23.16.793,Remembering_Displays,2020.1.2,MacIntel,60,,0,1,0,8.051365,0,23,23,15,1,Stimuli/testStimuliCube/6u_s_20_s.png,Stimuli/testStimuliCube/6u_d_20_s.png,1,1,,,,,,,,,,s,3D
,,,,,,,18,female ,B,2020-05-03_22h23.16.793,Remembering_Displays,2020.1.2,MacIntel,60,,,,,,,,,,,,,,,,0,8,8,8,1,Stimuli/trialListCubes4.xlsx,Instructions/instr_19.png,Progress: 168 of 192 trials completed,,
,,,,,,,18,female ,B,2020-05-03_22h23.16.793,Remembering_Displays,2020.1.2,MacIntel,60,,0,1,1,0.433535,0,0,0,18,1,Stimuli/testStimuliSquare/6u_s_4_s_2D.png,Stimuli/testStimuliSquare/6u_s_4_s_2D.png,0,9,,,,,,,,,,s,2D
,,,,,,,18,female ,B,2020-05-03_22h23.16.793,Remembering_Displays,2020.1.2,MacIntel,60,1,1,1,1,0.060935,0,1,1,5,1,Stimuli/testStimuliSquare/6u_s_3_2D.png,Stimuli/testStimuliSquare/6u_d_3_2D.png,1,1,0.874835,,,,,,,,,c,2D
,,,,,,,18,female ,B,2020-05-03_22h23.16.793,Remembering_Displays,2020.1.2,MacIntel,60,,0,1,1,6.901725,0,2,2,0,1,Stimuli/testStimuliSquare/6u_s_1_2D.png,Stimuli/testStimuliSquare/6u_s_1_2D.png,0,9,,,,,,,,,,c,2D
,,,,,,,18,female ,B,2020-05-03_22h23.16.793,Remembering_Displays,2020.1.2,MacIntel,60,,0,1,1,5.051725,0,3,3,2,1,Stimuli/testStimuliSquare/6u_s_2_2D.png,Stimuli/testStimuliSquare/6u_s_2_2D.png,0,9,,,,,,,,,,c,2D
,,,,,,,18,female ,B,2020-05-03_22h23.16.793,Remembering_Displays,2020.1.2,MacIntel,60,1,0,1,0,3.02341,0,4,4,20,1,Stimuli/testStimuliSquare/6u_s_5_s_2D.png,Stimuli/testStimuliSquare/6u_s_5_s_2D.png,0,9,0.673135,,,,,,,,,s,2D
,,,,,,,18,female ,B,2020-05-03_22h23.16.793,Remembering_Displays,2020.1.2,MacIntel,60,,0,1,0,8.15132,0,5,5,23,1,Stimuli/testStimuliSquare/6u_s_6_s_2D.png,Stimuli/testStimuliSquare/6u_d_6_s_2D.png,1,1,,,,,,,,,,s,2D
,,,,,,,18,female ,B,2020-05-03_22h23.16.793,Remembering_Displays,2020.1.2,MacIntel,60,,0,1,0,0.003215,0,6,6,16,1,Stimuli/testStimuliSquare/6u_s_3_s_2D.png,Stimuli/testStimuliSquare/6u_s_3_s_2D.png,0,9,,,,,,,,,,s,2D
,,,,,,,18,female ,B,2020-05-03_22h23.16.793,Remembering_Displays,2020.1.2,MacIntel,60,1,0,1,0,1.411945,0,7,7,6,1,Stimuli/testStimuliSquare/6u_s_4_2D.png,Stimuli/testStimuliSquare/6u_s_4_2D.png,0,9,0.31085,,,,,,,,,c,2D
,,,,,,,18,female ,B,2020-05-03_22h23.16.793,Remembering_Displays,2020.1.2,MacIntel,60,,0,9,1,1.118205,0,8,8,4,1,Stimuli/testStimuliSquare/6u_s_3_2D.png,Stimuli/testStimuliSquare/6u_s_3_2D.png,0,9,,,,,,,,,,c,2D
,,,,,,,18,female ,B,2020-05-03_22h23.16.793,Remembering_Displays,2020.1.2,MacIntel,60,,0,9,0,0.60341,0,9,9,13,1,Stimuli/testStimuliSquare/6u_s_1_s_2D.png,Stimuli/testStimuliSquare/6u_d_1_s_2D.png,1,1,,,,,,,,,,s,2D
,,,,,,,18,female ,B,2020-05-03_22h23.16.793,Remembering_Displays,2020.1.2,MacIntel,60,9,0,1,0,0.25014,0,10,10,9,1,Stimuli/testStimuliSquare/6u_s_5_2D.png,Stimuli/testStimuliSquare/6u_d_5_2D.png,1,1,0.455495,,,,,,,,,c,2D
,,,,,,,18,female ,B,2020-05-03_22h23.16.793,Remembering_Displays,2020.1.2,MacIntel,60,,0,9,1,0.261435,0,11,11,22,1,Stimuli/testStimuliSquare/6u_s_6_s_2D.png,Stimuli/testStimuliSquare/6u_s_6_s_2D.png,0,9,,,,,,,,,,s,2D
,,,,,,,18,female ,B,2020-05-03_22h23.16.793,Remembering_Displays,2020.1.2,MacIntel,60,,0,1,0,1.725625,0,12,12,3,1,Stimuli/testStimuliSquare/6u_s_2_2D.png,Stimuli/testStimuliSquare/6u_d_2_2D.png,1,1,,,,,,,,,,c,2D
,,,,,,,18,female ,B,2020-05-03_22h23.16.793,Remembering_Displays,2020.1.2,MacIntel,60,,0,9,1,0.49699,0,13,13,11,1,Stimuli/testStimuliSquare/6u_s_6_2D.png,Stimuli/testStimuliSquare/6u_d_6_2D.png,1,1,,,,,,,,,,c,2D
,,,,,,,18,female ,B,2020-05-03_22h23.16.793,Remembering_Displays,2020.1.2,MacIntel,60,,0,9,0,0.88339,0,14,14,12,1,Stimuli/testStimuliSquare/6u_s_1_s_2D.png,Stimuli/testStimuliSquare/6u_s_1_s_2D.png,0,9,,,,,,,,,,s,2D
,,,,,,,18,female ,B,2020-05-03_22h23.16.793,Remembering_Displays,2020.1.2,MacIntel,60,9,0,9,1,0.149765,0,15,15,15,1,Stimuli/testStimuliSquare/6u_s_2_s_2D.png,Stimuli/testStimuliSquare/6u_d_2_s_2D.png,1,1,0.100765,,,,,,,,,s,2D
,,,,,,,18,female ,B,2020-05-03_22h23.16.793,Remembering_Displays,2020.1.2,MacIntel,60,9,0,9,1,0.050155,0,16,16,7,1,Stimuli/testStimuliSquare/6u_s_4_2D.png,Stimuli/testStimuliSquare/6u_d_4_2D.png,1,1,0.091345,,,,,,,,,c,2D
,,,,,,,18,female ,B,2020-05-03_22h23.16.793,Remembering_Displays,2020.1.2,MacIntel,60,9,1,9,1,0.1167,0,17,17,8,1,Stimuli/testStimuliSquare/6u_s_5_2D.png,Stimuli/testStimuliSquare/6u_s_5_2D.png,0,9,0.024005,,,,,,,,,c,2D
,,,,,,,18,female ,B,2020-05-03_22h23.16.793,Remembering_Displays,2020.1.2,MacIntel,60,9,1,9,1,0.049775,0,18,18,14,1,Stimuli/testStimuliSquare/6u_s_2_s_2D.png,Stimuli/testStimuliSquare/6u_s_2_s_2D.png,0,9,0.04102,,,,,,,,,s,2D
,,,,,,,18,female ,B,2020-05-03_22h23.16.793,Remembering_Displays,2020.1.2,MacIntel,60,,0,9,0,0.16707,0,19,19,17,1,Stimuli/testStimuliSquare/6u_s_3_s_2D.png,Stimuli/testStimuliSquare/6u_d_3_s_2D.png,1,1,,,,,,,,,,s,2D
,,,,,,,18,female ,B,2020-05-03_22h23.16.793,Remembering_Displays,2020.1.2,MacIntel,60,9,0,9,1,0.018485,0,20,20,19,1,Stimuli/testStimuliSquare/6u_s_4_s_2D.png,Stimuli/testStimuliSquare/6u_d_4_s_2D.png,1,1,0.18264,,,,,,,,,s,2D
,,,,,,,18,female ,B,2020-05-03_22h23.16.793,Remembering_Displays,2020.1.2,MacIntel,60,9,0,9,1,0.16774,0,21,21,1,1,Stimuli/testStimuliSquare/6u_s_1_2D.png,Stimuli/testStimuliSquare/6u_d_1_2D.png,1,1,0.000535,,,,,,,,,c,2D
,,,,,,,18,female ,B,2020-05-03_22h23.16.793,Remembering_Displays,2020.1.2,MacIntel,60,9,1,9,1,0.053785,0,22,22,10,1,Stimuli/testStimuliSquare/6u_s_6_2D.png,Stimuli/testStimuliSquare/6u_s_6_2D.png,0,9,0.34559,,,,,,,,,c,2D
,,,,,,,18,female ,B,2020-05-03_22h23.16.793,Remembering_Displays,2020.1.2,MacIntel,60,9,0,9,1,0.11182,0,23,23,21,1,Stimuli/testStimuliSquare/6u_s_5_s_2D.png,Stimuli/testStimuliSquare/6u_d_5_s_2D.png,1,1,0.18156,,,,,,,,,s,2D