instr_Loop.thisRepN,instr_Loop.thisTrialN,instr_Loop.thisN,instr_Loop.thisIndex,instr_Loop.ran,instructionImage,time,age,sex (female/male),order,date,expName,psychopyVersion,OS,frameRate,struc_judge_respond.keys,struc_judge_respond.corr,struc_judge_respond.rt,dual_respond.keys,dual_respond.corr,dual_respond.rt,trials.thisRepN,trials.thisTrialN,trials.thisN,trials.thisIndex,trials.ran,stim1,stim2,isAnyChange,corrAns,selectBlock.thisRepN,selectBlock.thisTrialN,selectBlock.thisN,selectBlock.thisIndex,selectBlock.ran,condsFile,condsImage,remaining,connected,dimensionality
0,0,0,0,1,Instructions/instr_1.png,5,18,female,A,2020-05-04_18h38.48.129,Remembering_Displays,2020.1.2,MacIntel,60,,,,,0.947916667,,,,,,,,,,,,,,,,,,,,
0,1,1,1,1,Instructions/instr_2.png,3,18,female,A,2020-05-04_18h38.48.129,Remembering_Displays,2020.1.2,MacIntel,60,,,,,,,,,,,,,,,,,,,,,,,,,
0,2,2,2,1,Instructions/instr_3.png,5,18,female,A,2020-05-04_18h38.48.129,Remembering_Displays,2020.1.2,MacIntel,60,,,,,,,,,,,,,,,,,,,,,,,,,
0,3,3,3,1,Instructions/instr_4.png,1,18,female,A,2020-05-04_18h38.48.129,Remembering_Displays,2020.1.2,MacIntel,60,,,,,,,,,,,,,,,,,,,,,,,,,
0,4,4,4,1,Instructions/instr_5.png,1,18,female,A,2020-05-04_18h38.48.129,Remembering_Displays,2020.1.2,MacIntel,60,,,,,,,,,,,,,,,,,,,,,,,,,
0,5,5,5,1,Instructions/instr_6.png,1,18,female,A,2020-05-04_18h38.48.129,Remembering_Displays,2020.1.2,MacIntel,60,,,,,,,,,,,,,,,,,,,,,,,,,
0,6,6,6,1,Instructions/instr_7.png,1,18,female,A,2020-05-04_18h38.48.129,Remembering_Displays,2020.1.2,MacIntel,60,,,,,,,,,,,,,,,,,,,,,,,,,
0,7,7,7,1,Instructions/instr_8.png,3,18,female,A,2020-05-04_18h38.48.129,Remembering_Displays,2020.1.2,MacIntel,60,,,,,,,,,,,,,,,,,,,,,,,,,
0,8,8,8,1,Instructions/instr_9.png,3,18,female,A,2020-05-04_18h38.48.129,Remembering_Displays,2020.1.2,MacIntel,60,,,,,,,,,,,,,,,,,,,,,,,,,
0,9,9,9,1,Instructions/instr_10.png,3,18,female,A,2020-05-04_18h38.48.129,Remembering_Displays,2020.1.2,MacIntel,60,,,,,,,,,,,,,,,,,,,,,,,,,
0,10,10,10,1,Instructions/instr_11.png,3,18,female,A,2020-05-04_18h38.48.129,Remembering_Displays,2020.1.2,MacIntel,60,,,,,,,,,,,,,,,,,,,,,,,,,
0,11,11,11,1,Instructions/instr_12.png,3,18,female,A,2020-05-04_18h38.48.129,Remembering_Displays,2020.1.2,MacIntel,60,,,,,,,,,,,,,,,,,,,,,,,,,
0,12,12,12,1,Instructions/instr_13.png,3,18,female,A,2020-05-04_18h38.48.129,Remembering_Displays,2020.1.2,MacIntel,60,,,,,,,,,,,,,,,,,,,,,,,,,
0,13,13,13,1,Instructions/instr_14.png,3,18,female,A,2020-05-04_18h38.48.129,Remembering_Displays,2020.1.2,MacIntel,60,,,,,,,,,,,,,,,,,,,,,,,,,
0,14,14,14,1,Instructions/instr_15.png,3,18,female,A,2020-05-04_18h38.48.129,Remembering_Displays,2020.1.2,MacIntel,60,,,,,,,,,,,,,,,,,,,,,,,,,
0,15,15,15,1,Instructions/instr_16.png,5,18,female,A,2020-05-04_18h38.48.129,Remembering_Displays,2020.1.2,MacIntel,60,,,,,,,,,,,,,,,,,,,,,,,,,
,,,,,,,18,female,A,2020-05-04_18h38.48.129,Remembering_Displays,2020.1.2,MacIntel,60,9,0,1.39827,9,1,12.519205,0,0,0,1,1,Stimuli/practiceStimuliSquare/practice2_s.png,Stimuli/practiceStimuliSquare/practice2_d.png,1,1,,,,,,,,,,
,,,,,,,18,female,A,2020-05-04_18h38.48.129,Remembering_Displays,2020.1.2,MacIntel,60,,0,,9,1,2.770005,0,1,1,4,1,Stimuli/practiceStimuliSquare/practice1_s.png,Stimuli/practiceStimuliSquare/practice1_d.png,1,1,,,,,,,,,,
,,,,,,,18,female,A,2020-05-04_18h38.48.129,Remembering_Displays,2020.1.2,MacIntel,60,9,1,1.15088,9,1,1.452025,0,2,2,2,1,Stimuli/practiceStimuliSquare/practice3_s.png,Stimuli/practiceStimuliSquare/practice3_s.png,0,9,,,,,,,,,,
,,,,,,,18,female,A,2020-05-04_18h38.48.129,Remembering_Displays,2020.1.2,MacIntel,60,1,1,1.196805,9,1,1.650805,0,3,3,3,1,Stimuli/practiceStimuliSquare/practice4_s.png,Stimuli/practiceStimuliSquare/practice4_d.png,1,1,,,,,,,,,,
,,,,,,,18,female,A,2020-05-04_18h38.48.129,Remembering_Displays,2020.1.2,MacIntel,60,,0,,9,1,0.638885,0,4,4,5,1,Stimuli/practiceStimuliSquare/practice2_s.png,Stimuli/practiceStimuliSquare/practice2_s.png,0,9,,,,,,,,,,
,,,,,,,18,female,A,2020-05-04_18h38.48.129,Remembering_Displays,2020.1.2,MacIntel,60,,0,,1,1,1.20761,0,5,5,7,1,Stimuli/practiceStimuliSquare/practice4_s.png,Stimuli/practiceStimuliSquare/practice4_s.png,0,9,,,,,,,,,,
,,,,,,,18,female,A,2020-05-04_18h38.48.129,Remembering_Displays,2020.1.2,MacIntel,60,9,1,0.5012,9,1,1.110565,0,6,6,0,1,Stimuli/practiceStimuliSquare/practice1_s.png,Stimuli/practiceStimuliSquare/practice1_s.png,0,9,,,,,,,,,,
,,,,,,,18,female,A,2020-05-04_18h38.48.129,Remembering_Displays,2020.1.2,MacIntel,60,1,1,0.892105,1,1,1.64669,0,7,7,6,1,Stimuli/practiceStimuliSquare/practice3_s.png,Stimuli/practiceStimuliSquare/practice3_d.png,1,1,,,,,,,,,,
,,,,,,,18,female,A,2020-05-04_18h38.48.129,Remembering_Displays,2020.1.2,MacIntel,60,,,,,,,,,,,,,,,,0,0,0,0,1,Stimuli/practiceListSquares.xlsx,Instructions/instr_practice_A.png,Practice trials completed,,
,,,,,,,18,female,A,2020-05-04_18h38.48.129,Remembering_Displays,2020.1.2,MacIntel,60,9,1,0.740605,1,1,0.642185,0,0,0,18,1,Stimuli/testStimuliSquare/6u_s_4_s_2D.png,Stimuli/testStimuliSquare/6u_s_4_s_2D.png,0,9,,,,,,,,,s,2D
,,,,,,,18,female,A,2020-05-04_18h38.48.129,Remembering_Displays,2020.1.2,MacIntel,60,9,1,0.599325,9,1,0.723295,0,1,1,2,1,Stimuli/testStimuliSquare/6u_s_2_2D.png,Stimuli/testStimuliSquare/6u_s_2_2D.png,0,9,,,,,,,,,c,2D
,,,,,,,18,female,A,2020-05-04_18h38.48.129,Remembering_Displays,2020.1.2,MacIntel,60,9,0,0.756785,9,1,1.067025,0,2,2,21,1,Stimuli/testStimuliSquare/6u_s_5_s_2D.png,Stimuli/testStimuliSquare/6u_d_5_s_2D.png,1,1,,,,,,,,,s,2D
,,,,,,,18,female,A,2020-05-04_18h38.48.129,Remembering_Displays,2020.1.2,MacIntel,60,9,1,0.872835,1,1,0.75993,0,3,3,10,1,Stimuli/testStimuliSquare/6u_s_6_2D.png,Stimuli/testStimuliSquare/6u_s_6_2D.png,0,9,,,,,,,,,c,2D
,,,,,,,18,female,A,2020-05-04_18h38.48.129,Remembering_Displays,2020.1.2,MacIntel,60,9,1,0.78281,1,1,0.8687,0,4,4,16,1,Stimuli/testStimuliSquare/6u_s_3_s_2D.png,Stimuli/testStimuliSquare/6u_s_3_s_2D.png,0,9,,,,,,,,,s,2D
,,,,,,,18,female,A,2020-05-04_18h38.48.129,Remembering_Displays,2020.1.2,MacIntel,60,9,1,0.66633,9,1,0.429955,0,5,5,4,1,Stimuli/testStimuliSquare/6u_s_3_2D.png,Stimuli/testStimuliSquare/6u_s_3_2D.png,0,9,,,,,,,,,c,2D
,,,,,,,18,female,A,2020-05-04_18h38.48.129,Remembering_Displays,2020.1.2,MacIntel,60,9,1,0.619205,1,1,0.85791,0,6,6,20,1,Stimuli/testStimuliSquare/6u_s_5_s_2D.png,Stimuli/testStimuliSquare/6u_s_5_s_2D.png,0,9,,,,,,,,,s,2D
,,,,,,,18,female,A,2020-05-04_18h38.48.129,Remembering_Displays,2020.1.2,MacIntel,60,1,1,0.79004,9,1,0.679215,0,7,7,23,1,Stimuli/testStimuliSquare/6u_s_6_s_2D.png,Stimuli/testStimuliSquare/6u_d_6_s_2D.png,1,1,,,,,,,,,s,2D
,,,,,,,18,female,A,2020-05-04_18h38.48.129,Remembering_Displays,2020.1.2,MacIntel,60,1,1,0.95859,9,1,0.533915,0,8,8,1,1,Stimuli/testStimuliSquare/6u_s_1_2D.png,Stimuli/testStimuliSquare/6u_d_1_2D.png,1,1,,,,,,,,,c,2D
,,,,,,,18,female,A,2020-05-04_18h38.48.129,Remembering_Displays,2020.1.2,MacIntel,60,1,1,0.850545,9,1,0.5674,0,9,9,11,1,Stimuli/testStimuliSquare/6u_s_6_2D.png,Stimuli/testStimuliSquare/6u_d_6_2D.png,1,1,,,,,,,,,c,2D
,,,,,,,18,female,A,2020-05-04_18h38.48.129,Remembering_Displays,2020.1.2,MacIntel,60,9,1,1.086035,1,1,0.526375,0,10,10,14,1,Stimuli/testStimuliSquare/6u_s_2_s_2D.png,Stimuli/testStimuliSquare/6u_s_2_s_2D.png,0,9,,,,,,,,,s,2D
,,,,,,,18,female,A,2020-05-04_18h38.48.129,Remembering_Displays,2020.1.2,MacIntel,60,1,1,0.62835,9,1,0.48378,0,11,11,13,1,Stimuli/testStimuliSquare/6u_s_1_s_2D.png,Stimuli/testStimuliSquare/6u_d_1_s_2D.png,1,1,,,,,,,,,s,2D
,,,,,,,18,female,A,2020-05-04_18h38.48.129,Remembering_Displays,2020.1.2,MacIntel,60,9,0,0.645075,1,1,0.50926,0,12,12,15,1,Stimuli/testStimuliSquare/6u_s_2_s_2D.png,Stimuli/testStimuliSquare/6u_d_2_s_2D.png,1,1,,,,,,,,,s,2D
,,,,,,,18,female,A,2020-05-04_18h38.48.129,Remembering_Displays,2020.1.2,MacIntel,60,9,1,0.690745,9,1,0.52241,0,13,13,0,1,Stimuli/testStimuliSquare/6u_s_1_2D.png,Stimuli/testStimuliSquare/6u_s_1_2D.png,0,9,,,,,,,,,c,2D
,,,,,,,18,female,A,2020-05-04_18h38.48.129,Remembering_Displays,2020.1.2,MacIntel,60,9,1,0.60078,9,1,0.41898,0,14,14,12,1,Stimuli/testStimuliSquare/6u_s_1_s_2D.png,Stimuli/testStimuliSquare/6u_s_1_s_2D.png,0,9,,,,,,,,,s,2D
,,,,,,,18,female,A,2020-05-04_18h38.48.129,Remembering_Displays,2020.1.2,MacIntel,60,1,1,0.84214,9,1,0.67326,0,15,15,19,1,Stimuli/testStimuliSquare/6u_s_4_s_2D.png,Stimuli/testStimuliSquare/6u_d_4_s_2D.png,1,1,,,,,,,,,s,2D
,,,,,,,18,female,A,2020-05-04_18h38.48.129,Remembering_Displays,2020.1.2,MacIntel,60,1,1,0.759965,1,1,1.169105,0,16,16,17,1,Stimuli/testStimuliSquare/6u_s_3_s_2D.png,Stimuli/testStimuliSquare/6u_d_3_s_2D.png,1,1,,,,,,,,,s,2D
,,,,,,,18,female,A,2020-05-04_18h38.48.129,Remembering_Displays,2020.1.2,MacIntel,60,9,0,0.976545,9,1,0.84019,0,17,17,3,1,Stimuli/testStimuliSquare/6u_s_2_2D.png,Stimuli/testStimuliSquare/6u_d_2_2D.png,1,1,,,,,,,,,c,2D
,,,,,,,18,female,A,2020-05-04_18h38.48.129,Remembering_Displays,2020.1.2,MacIntel,60,1,1,0.67766,9,1,0.635575,0,18,18,5,1,Stimuli/testStimuliSquare/6u_s_3_2D.png,Stimuli/testStimuliSquare/6u_d_3_2D.png,1,1,,,,,,,,,c,2D
,,,,,,,18,female,A,2020-05-04_18h38.48.129,Remembering_Displays,2020.1.2,MacIntel,60,9,1,0.70888,9,1,0.726605,0,19,19,8,1,Stimuli/testStimuliSquare/6u_s_5_2D.png,Stimuli/testStimuliSquare/6u_s_5_2D.png,0,9,,,,,,,,,c,2D
,,,,,,,18,female,A,2020-05-04_18h38.48.129,Remembering_Displays,2020.1.2,MacIntel,60,9,0,0.74592,1,1,0.51088,0,20,20,9,1,Stimuli/testStimuliSquare/6u_s_5_2D.png,Stimuli/testStimuliSquare/6u_d_5_2D.png,1,1,,,,,,,,,c,2D
,,,,,,,18,female,A,2020-05-04_18h38.48.129,Remembering_Displays,2020.1.2,MacIntel,60,9,1,0.865765,9,1,0.573125,0,21,21,6,1,Stimuli/testStimuliSquare/6u_s_4_2D.png,Stimuli/testStimuliSquare/6u_s_4_2D.png,0,9,,,,,,,,,c,2D
,,,,,,,18,female,A,2020-05-04_18h38.48.129,Remembering_Displays,2020.1.2,MacIntel,60,1,1,0.690355,1,1,0.98915,0,22,22,7,1,Stimuli/testStimuliSquare/6u_s_4_2D.png,Stimuli/testStimuliSquare/6u_d_4_2D.png,1,1,,,,,,,,,c,2D
,,,,,,,18,female,A,2020-05-04_18h38.48.129,Remembering_Displays,2020.1.2,MacIntel,60,9,1,0.73599,9,1,0.80434,0,23,23,22,1,Stimuli/testStimuliSquare/6u_s_6_s_2D.png,Stimuli/testStimuliSquare/6u_s_6_s_2D.png,0,9,,,,,,,,,s,2D
,,,,,,,18,female,A,2020-05-04_18h38.48.129,Remembering_Displays,2020.1.2,MacIntel,60,,,,,,,,,,,,,,,,0,1,1,1,1,Stimuli/trialListSquares1.xlsx,Instructions/instr_18.png,Progress: 24 of 192 trials completed,,
,,,,,,,18,female,A,2020-05-04_18h38.48.129,Remembering_Displays,2020.1.2,MacIntel,60,1,1,1.07696,1,1,0.489835,0,0,0,1,1,Stimuli/practiceStimuliCube/practice2_s.png,Stimuli/practiceStimuliCube/practice2_d.png,1,1,,,,,,,,,,
,,,,,,,18,female,A,2020-05-04_18h38.48.129,Remembering_Displays,2020.1.2,MacIntel,60,1,0,0.647545,9,1,0.43587,0,1,1,7,1,Stimuli/practiceStimuliCube/practice4_s.png,Stimuli/practiceStimuliCube/practice4_s.png,0,9,,,,,,,,,,
,,,,,,,18,female,A,2020-05-04_18h38.48.129,Remembering_Displays,2020.1.2,MacIntel,60,9,1,0.63131,9,1,0.421765,0,2,2,2,1,Stimuli/practiceStimuliCube/practice3_s.png,Stimuli/practiceStimuliCube/practice3_s.png,0,9,,,,,,,,,,
,,,,,,,18,female,A,2020-05-04_18h38.48.129,Remembering_Displays,2020.1.2,MacIntel,60,9,1,0.669175,1,1,0.600385,0,3,3,5,1,Stimuli/practiceStimuliCube/practice2_s.png,Stimuli/practiceStimuliCube/practice2_s.png,0,9,,,,,,,,,,
,,,,,,,18,female,A,2020-05-04_18h38.48.129,Remembering_Displays,2020.1.2,MacIntel,60,1,1,1.062655,9,1,0.49445,0,4,4,3,1,Stimuli/practiceStimuliCube/practice4_s.png,Stimuli/practiceStimuliCube/practice4_d.png,1,1,,,,,,,,,,
,,,,,,,18,female,A,2020-05-04_18h38.48.129,Remembering_Displays,2020.1.2,MacIntel,60,1,1,0.89463,9,1,0.45201,0,5,5,6,1,Stimuli/practiceStimuliCube/practice3_s.png,Stimuli/practiceStimuliCube/practice3_d.png,1,1,,,,,,,,,,
,,,,,,,18,female,A,2020-05-04_18h38.48.129,Remembering_Displays,2020.1.2,MacIntel,60,1,0,1.3284,9,1,1.12329,0,6,6,0,1,Stimuli/practiceStimuliCube/practice1_s.png,Stimuli/practiceStimuliCube/practice1_s.png,0,9,,,,,,,,,,
,,,,,,,18,female,A,2020-05-04_18h38.48.129,Remembering_Displays,2020.1.2,MacIntel,60,1,1,1.222235,1,1,0.88646,0,7,7,4,1,Stimuli/practiceStimuliCube/practice1_s.png,Stimuli/practiceStimuliCube/practice1_d.png,1,1,,,,,,,,,,
,,,,,,,18,female,A,2020-05-04_18h38.48.129,Remembering_Displays,2020.1.2,MacIntel,60,,,,,,,,,,,,,,,,0,2,2,2,1,Stimuli/practiceListCubes.xlsx,Instructions/instr_practice_B.png,Practice trials completed,,
,,,,,,,18,female,A,2020-05-04_18h38.48.129,Remembering_Displays,2020.1.2,MacIntel,60,9,1,0.71842,9,1,0.567345,0,0,0,20,1,Stimuli/testStimuliCube/6u_s_23_s.png,Stimuli/testStimuliCube/6u_s_23_s.png,0,9,,,,,,,,,s,3D
,,,,,,,18,female,A,2020-05-04_18h38.48.129,Remembering_Displays,2020.1.2,MacIntel,60,1,1,0.570905,9,1,0.455925,0,1,1,7,1,Stimuli/testStimuliCube/6u_s_22.png,Stimuli/testStimuliCube/6u_d_22.png,1,1,,,,,,,,,c,3D
,,,,,,,18,female,A,2020-05-04_18h38.48.129,Remembering_Displays,2020.1.2,MacIntel,60,1,1,0.800415,9,1,0.854475,0,2,2,13,1,Stimuli/testStimuliCube/6u_s_19_s.png,Stimuli/testStimuliCube/6u_d_19_s.png,1,1,,,,,,,,,s,3D
,,,,,,,18,female,A,2020-05-04_18h38.48.129,Remembering_Displays,2020.1.2,MacIntel,60,9,1,0.593625,9,1,0.67148,0,3,3,14,1,Stimuli/testStimuliCube/6u_s_20_s.png,Stimuli/testStimuliCube/6u_s_20_s.png,0,9,,,,,,,,,s,3D
,,,,,,,18,female,A,2020-05-04_18h38.48.129,Remembering_Displays,2020.1.2,MacIntel,60,1,1,0.67929,1,1,0.610445,0,4,4,15,1,Stimuli/testStimuliCube/6u_s_20_s.png,Stimuli/testStimuliCube/6u_d_20_s.png,1,1,,,,,,,,,s,3D
,,,,,,,18,female,A,2020-05-04_18h38.48.129,Remembering_Displays,2020.1.2,MacIntel,60,9,1,0.78231,9,1,1.21947,0,5,5,4,1,Stimuli/testStimuliCube/6u_s_21.png,Stimuli/testStimuliCube/6u_s_21.png,0,9,,,,,,,,,c,3D
,,,,,,,18,female,A,2020-05-04_18h38.48.129,Remembering_Displays,2020.1.2,MacIntel,60,1,1,0.705775,1,1,1.392505,0,6,6,1,1,Stimuli/testStimuliCube/6u_s_19.png,Stimuli/testStimuliCube/6u_d_19.png,1,1,,,,,,,,,c,3D
,,,,,,,18,female,A,2020-05-04_18h38.48.129,Remembering_Displays,2020.1.2,MacIntel,60,1,0,1.03577,1,1,0.9021,0,7,7,22,1,Stimuli/testStimuliCube/6u_s_24_s.png,Stimuli/testStimuliCube/6u_s_24_s.png,0,9,,,,,,,,,s,3D
,,,,,,,18,female,A,2020-05-04_18h38.48.129,Remembering_Displays,2020.1.2,MacIntel,60,9,1,0.9185,1,1,0.573335,0,8,8,8,1,Stimuli/testStimuliCube/6u_s_23.png,Stimuli/testStimuliCube/6u_s_23.png,0,9,,,,,,,,,c,3D
,,,,,,,18,female,A,2020-05-04_18h38.48.129,Remembering_Displays,2020.1.2,MacIntel,60,9,1,0.672485,1,1,0.435905,0,9,9,12,1,Stimuli/testStimuliCube/6u_s_19_s.png,Stimuli/testStimuliCube/6u_s_19_s.png,0,9,,,,,,,,,s,3D
,,,,,,,18,female,A,2020-05-04_18h38.48.129,Remembering_Displays,2020.1.2,MacIntel,60,1,1,0.77434,1,1,0.685465,0,10,10,11,1,Stimuli/testStimuliCube/6u_s_24.png,Stimuli/testStimuliCube/6u_d_24.png,1,1,,,,,,,,,c,3D
,,,,,,,18,female,A,2020-05-04_18h38.48.129,Remembering_Displays,2020.1.2,MacIntel,60,1,1,0.595895,9,0,1.334585,0,11,11,17,1,Stimuli/testStimuliCube/6u_s_21_s.png,Stimuli/testStimuliCube/6u_d_21_s.png,1,1,,,,,,,,,s,3D
,,,,,,,18,female,A,2020-05-04_18h38.48.129,Remembering_Displays,2020.1.2,MacIntel,60,9,0,0.7413,1,1,0.93723,0,12,12,9,1,Stimuli/testStimuliCube/6u_s_23.png,Stimuli/testStimuliCube/6u_d_23.png,1,1,,,,,,,,,c,3D
,,,,,,,18,female,A,2020-05-04_18h38.48.129,Remembering_Displays,2020.1.2,MacIntel,60,1,1,0.978255,1,1,1.639195,0,13,13,23,1,Stimuli/testStimuliCube/6u_s_24_s.png,Stimuli/testStimuliCube/6u_d_24_s.png,1,1,,,,,,,,,s,3D
,,,,,,,18,female,A,2020-05-04_18h38.48.129,Remembering_Displays,2020.1.2,MacIntel,60,9,1,0.76484,9,1,0.623665,0,14,14,16,1,Stimuli/testStimuliCube/6u_s_21_s.png,Stimuli/testStimuliCube/6u_s_21_s.png,0,9,,,,,,,,,s,3D
,,,,,,,18,female,A,2020-05-04_18h38.48.129,Remembering_Displays,2020.1.2,MacIntel,60,9,1,0.737065,9,1,0.50746,0,15,15,10,1,Stimuli/testStimuliCube/6u_s_24.png,Stimuli/testStimuliCube/6u_s_24.png,0,9,,,,,,,,,c,3D
,,,,,,,18,female,A,2020-05-04_18h38.48.129,Remembering_Displays,2020.1.2,MacIntel,60,1,1,0.7072,1,1,0.87943,0,16,16,19,1,Stimuli/testStimuliCube/6u_s_22_s.png,Stimuli/testStimuliCube/6u_d_22_s.png,1,1,,,,,,,,,s,3D
,,,,,,,18,female,A,2020-05-04_18h38.48.129,Remembering_Displays,2020.1.2,MacIntel,60,1,1,0.759125,9,1,0.57849,0,17,17,3,1,Stimuli/testStimuliCube/6u_s_20.png,Stimuli/testStimuliCube/6u_d_20.png,1,1,,,,,,,,,c,3D
,,,,,,,18,female,A,2020-05-04_18h38.48.129,Remembering_Displays,2020.1.2,MacIntel,60,9,1,0.832855,9,1,0.854885,0,18,18,6,1,Stimuli/testStimuliCube/6u_s_22.png,Stimuli/testStimuliCube/6u_s_22.png,0,9,,,,,,,,,c,3D
,,,,,,,18,female,A,2020-05-04_18h38.48.129,Remembering_Displays,2020.1.2,MacIntel,60,1,0,0.899415,1,1,0.78552,0,19,19,18,1,Stimuli/testStimuliCube/6u_s_22_s.png,Stimuli/testStimuliCube/6u_s_22_s.png,0,9,,,,,,,,,s,3D
,,,,,,,18,female,A,2020-05-04_18h38.48.129,Remembering_Displays,2020.1.2,MacIntel,60,9,1,0.44877,1,1,0.601525,0,20,20,2,1,Stimuli/testStimuliCube/6u_s_20.png,Stimuli/testStimuliCube/6u_s_20.png,0,9,,,,,,,,,c,3D
,,,,,,,18,female,A,2020-05-04_18h38.48.129,Remembering_Displays,2020.1.2,MacIntel,60,1,1,0.69247,9,1,0.884835,0,21,21,21,1,Stimuli/testStimuliCube/6u_s_23_s.png,Stimuli/testStimuliCube/6u_d_23_s.png,1,1,,,,,,,,,s,3D
,,,,,,,18,female,A,2020-05-04_18h38.48.129,Remembering_Displays,2020.1.2,MacIntel,60,1,1,0.990165,1,1,0.68892,0,22,22,5,1,Stimuli/testStimuliCube/6u_s_21.png,Stimuli/testStimuliCube/6u_d_21.png,1,1,,,,,,,,,c,3D
,,,,,,,18,female,A,2020-05-04_18h38.48.129,Remembering_Displays,2020.1.2,MacIntel,60,9,1,0.998415,9,1,0.7519,0,23,23,0,1,Stimuli/testStimuliCube/6u_s_19.png,Stimuli/testStimuliCube/6u_s_19.png,0,9,,,,,,,,,c,3D
,,,,,,,18,female,A,2020-05-04_18h38.48.129,Remembering_Displays,2020.1.2,MacIntel,60,,,,,,,,,,,,,,,,0,3,3,3,1,Stimuli/trialListCubes4.xlsx,Instructions/instr_19.png,Progress: 48 of 192 trials completed,,
,,,,,,,18,female,A,2020-05-04_18h38.48.129,Remembering_Displays,2020.1.2,MacIntel,60,9,1,1.391025,9,1,0.64267,0,0,0,12,1,Stimuli/testStimuliSquare/6u_s_7_s_2D.png,Stimuli/testStimuliSquare/6u_s_7_s_2D.png,0,9,,,,,,,,,s,2D
,,,,,,,18,female,A,2020-05-04_18h38.48.129,Remembering_Displays,2020.1.2,MacIntel,60,1,1,0.80719,1,1,0.835825,0,1,1,3,1,Stimuli/testStimuliSquare/6u_s_8_2D.png,Stimuli/testStimuliSquare/6u_d_8_2D.png,1,1,,,,,,,,,c,2D
,,,,,,,18,female,A,2020-05-04_18h38.48.129,Remembering_Displays,2020.1.2,MacIntel,60,1,1,0.637225,9,1,0.642025,0,2,2,23,1,Stimuli/testStimuliSquare/6u_s_12_s_2D.png,Stimuli/testStimuliSquare/6u_d_12_s_2D.png,1,1,,,,,,,,,s,2D
,,,,,,,18,female,A,2020-05-04_18h38.48.129,Remembering_Displays,2020.1.2,MacIntel,60,9,0,0.61179,1,0,1.09355,0,3,3,5,1,Stimuli/testStimuliSquare/6u_s_9_2D.png,Stimuli/testStimuliSquare/6u_d_9_2D.png,1,1,,,,,,,,,c,2D
,,,,,,,18,female,A,2020-05-04_18h38.48.129,Remembering_Displays,2020.1.2,MacIntel,60,1,1,0.876335,1,1,1.261355,0,4,4,11,1,Stimuli/testStimuliSquare/6u_s_12_2D.png,Stimuli/testStimuliSquare/6u_d_12_2D.png,1,1,,,,,,,,,c,2D
,,,,,,,18,female,A,2020-05-04_18h38.48.129,Remembering_Displays,2020.1.2,MacIntel,60,9,1,0.68379,9,1,0.885725,0,5,5,2,1,Stimuli/testStimuliSquare/6u_s_8_2D.png,Stimuli/testStimuliSquare/6u_s_8_2D.png,0,9,,,,,,,,,c,2D
,,,,,,,18,female,A,2020-05-04_18h38.48.129,Remembering_Displays,2020.1.2,MacIntel,60,9,1,0.73224,1,1,0.46855,0,6,6,16,1,Stimuli/testStimuliSquare/6u_s_9_s_2D.png,Stimuli/testStimuliSquare/6u_s_9_s_2D.png,0,9,,,,,,,,,s,2D
,,,,,,,18,female,A,2020-05-04_18h38.48.129,Remembering_Displays,2020.1.2,MacIntel,60,1,1,0.906455,1,1,0.816795,0,7,7,15,1,Stimuli/testStimuliSquare/6u_s_8_s_2D.png,Stimuli/testStimuliSquare/6u_d_8_s_2D.png,1,1,,,,,,,,,s,2D
,,,,,,,18,female,A,2020-05-04_18h38.48.129,Remembering_Displays,2020.1.2,MacIntel,60,9,1,0.470905,9,1,0.45466,0,8,8,14,1,Stimuli/testStimuliSquare/6u_s_8_s_2D.png,Stimuli/testStimuliSquare/6u_s_8_s_2D.png,0,9,,,,,,,,,s,2D
,,,,,,,18,female,A,2020-05-04_18h38.48.129,Remembering_Displays,2020.1.2,MacIntel,60,1,1,0.56598,9,1,2.987265,0,9,9,21,1,Stimuli/testStimuliSquare/6u_s_11_s_2D.png,Stimuli/testStimuliSquare/6u_d_11_s_2D.png,1,1,,,,,,,,,s,2D
,,,,,,,18,female,A,2020-05-04_18h38.48.129,Remembering_Displays,2020.1.2,MacIntel,60,9,1,1.17138,9,1,0.55382,0,10,10,10,1,Stimuli/testStimuliSquare/6u_s_12_2D.png,Stimuli/testStimuliSquare/6u_s_12_2D.png,0,9,,,,,,,,,c,2D
,,,,,,,18,female,A,2020-05-04_18h38.48.129,Remembering_Displays,2020.1.2,MacIntel,60,1,1,0.755475,9,1,1.6069,0,11,11,13,1,Stimuli/testStimuliSquare/6u_s_7_s_2D.png,Stimuli/testStimuliSquare/6u_d_7_s_2D.png,1,1,,,,,,,,,s,2D
,,,,,,,18,female,A,2020-05-04_18h38.48.129,Remembering_Displays,2020.1.2,MacIntel,60,9,1,0.74938,1,1,0.47097,0,12,12,8,1,Stimuli/testStimuliSquare/6u_s_11_2D.png,Stimuli/testStimuliSquare/6u_s_11_2D.png,0,9,,,,,,,,,c,2D
,,,,,,,18,female,A,2020-05-04_18h38.48.129,Remembering_Displays,2020.1.2,MacIntel,60,9,1,0.47076,1,1,0.6185,0,13,13,22,1,Stimuli/testStimuliSquare/6u_s_12_s_2D.png,Stimuli/testStimuliSquare/6u_s_12_s_2D.png,0,9,,,,,,,,,s,2D
,,,,,,,18,female,A,2020-05-04_18h38.48.129,Remembering_Displays,2020.1.2,MacIntel,60,1,1,0.743385,1,1,1.38709,0,14,14,17,1,Stimuli/testStimuliSquare/6u_s_9_s_2D.png,Stimuli/testStimuliSquare/6u_d_9_s_2D.png,1,1,,,,,,,,,s,2D
,,,,,,,18,female,A,2020-05-04_18h38.48.129,Remembering_Displays,2020.1.2,MacIntel,60,1,1,1.12778,9,1,0.68703,0,15,15,19,1,Stimuli/testStimuliSquare/6u_s_10_s_2D.png,Stimuli/testStimuliSquare/6u_d_10_s_2D.png,1,1,,,,,,,,,s,2D
,,,,,,,18,female,A,2020-05-04_18h38.48.129,Remembering_Displays,2020.1.2,MacIntel,60,1,1,0.67532,9,0,4.750365,0,16,16,9,1,Stimuli/testStimuliSquare/6u_s_11_2D.png,Stimuli/testStimuliSquare/6u_d_11_2D.png,1,1,,,,,,,,,c,2D
,,,,,,,18,female,A,2020-05-04_18h38.48.129,Remembering_Displays,2020.1.2,MacIntel,60,9,1,1.00868,9,1,0.738275,0,17,17,18,1,Stimuli/testStimuliSquare/6u_s_10_s_2D.png,Stimuli/testStimuliSquare/6u_s_10_s_2D.png,0,9,,,,,,,,,s,2D
,,,,,,,18,female,A,2020-05-04_18h38.48.129,Remembering_Displays,2020.1.2,MacIntel,60,9,1,0.63866,9,1,0.510105,0,18,18,6,1,Stimuli/testStimuliSquare/6u_s_10_2D.png,Stimuli/testStimuliSquare/6u_s_10_2D.png,0,9,,,,,,,,,c,2D
,,,,,,,18,female,A,2020-05-04_18h38.48.129,Remembering_Displays,2020.1.2,MacIntel,60,9,1,0.56587,9,0,1.119085,0,19,19,20,1,Stimuli/testStimuliSquare/6u_s_11_s_2D.png,Stimuli/testStimuliSquare/6u_s_11_s_2D.png,0,9,,,,,,,,,s,2D
,,,,,,,18,female,A,2020-05-04_18h38.48.129,Remembering_Displays,2020.1.2,MacIntel,60,9,1,0.67059,1,1,0.611065,0,20,20,0,1,Stimuli/testStimuliSquare/6u_s_7_2D.png,Stimuli/testStimuliSquare/6u_s_7_2D.png,0,9,,,,,,,,,c,2D
,,,,,,,18,female,A,2020-05-04_18h38.48.129,Remembering_Displays,2020.1.2,MacIntel,60,9,1,0.549985,1,1,0.88262,0,21,21,4,1,Stimuli/testStimuliSquare/6u_s_9_2D.png,Stimuli/testStimuliSquare/6u_s_9_2D.png,0,9,,,,,,,,,c,2D
,,,,,,,18,female,A,2020-05-04_18h38.48.129,Remembering_Displays,2020.1.2,MacIntel,60,1,1,0.742325,1,1,1.321785,0,22,22,1,1,Stimuli/testStimuliSquare/6u_s_7_2D.png,Stimuli/testStimuliSquare/6u_d_7_2D.png,1,1,,,,,,,,,c,2D
,,,,,,,18,female,A,2020-05-04_18h38.48.129,Remembering_Displays,2020.1.2,MacIntel,60,1,1,0.591155,1,1,0.88787,0,23,23,7,1,Stimuli/testStimuliSquare/6u_s_10_2D.png,Stimuli/testStimuliSquare/6u_d_10_2D.png,1,1,,,,,,,,,c,2D
,,,,,,,18,female,A,2020-05-04_18h38.48.129,Remembering_Displays,2020.1.2,MacIntel,60,,,,,,,,,,,,,,,,0,4,4,4,1,Stimuli/trialListSquares2.xlsx,Instructions/instr_18.png,Progress: 72 of 192 trials completed,,
,,,,,,,18,female,A,2020-05-04_18h38.48.129,Remembering_Displays,2020.1.2,MacIntel,60,9,1,0.719165,1,1,0.584935,0,0,0,8,1,Stimuli/testStimuliCube/6u_s_17.png,Stimuli/testStimuliCube/6u_s_17.png,0,9,,,,,,,,,c,3D
,,,,,,,18,female,A,2020-05-04_18h38.48.129,Remembering_Displays,2020.1.2,MacIntel,60,1,1,0.620875,1,1,0.578985,0,1,1,5,1,Stimuli/testStimuliCube/6u_s_15.png,Stimuli/testStimuliCube/6u_d_15.png,1,1,,,,,,,,,c,3D
,,,,,,,18,female,A,2020-05-04_18h38.48.129,Remembering_Displays,2020.1.2,MacIntel,60,9,1,0.778425,9,1,0.9332,0,2,2,6,1,Stimuli/testStimuliCube/6u_s_16.png,Stimuli/testStimuliCube/6u_s_16.png,0,9,,,,,,,,,c,3D
,,,,,,,18,female,A,2020-05-04_18h38.48.129,Remembering_Displays,2020.1.2,MacIntel,60,9,1,0.537175,9,1,0.352655,0,3,3,22,1,Stimuli/testStimuliCube/6u_s_18_s.png,Stimuli/testStimuliCube/6u_s_18_s.png,0,9,,,,,,,,,s,3D
,,,,,,,18,female,A,2020-05-04_18h38.48.129,Remembering_Displays,2020.1.2,MacIntel,60,9,0,1.07579,1,1,0.752075,0,4,4,13,1,Stimuli/testStimuliCube/6u_s_13_s.png,Stimuli/testStimuliCube/6u_d_13_s.png,1,1,,,,,,,,,s,3D
,,,,,,,18,female,A,2020-05-04_18h38.48.129,Remembering_Displays,2020.1.2,MacIntel,60,9,1,0.71956,1,1,1.190955,0,5,5,10,1,Stimuli/testStimuliCube/6u_s_18.png,Stimuli/testStimuliCube/6u_s_18.png,0,9,,,,,,,,,c,3D
,,,,,,,18,female,A,2020-05-04_18h38.48.129,Remembering_Displays,2020.1.2,MacIntel,60,9,1,0.650245,9,1,0.885105,0,6,6,2,1,Stimuli/testStimuliCube/6u_s_14.png,Stimuli/testStimuliCube/6u_s_14.png,0,9,,,,,,,,,c,3D
,,,,,,,18,female,A,2020-05-04_18h38.48.129,Remembering_Displays,2020.1.2,MacIntel,60,1,1,0.5558,9,1,0.52004,0,7,7,9,1,Stimuli/testStimuliCube/6u_s_17.png,Stimuli/testStimuliCube/6u_d_17.png,1,1,,,,,,,,,c,3D
,,,,,,,18,female,A,2020-05-04_18h38.48.129,Remembering_Displays,2020.1.2,MacIntel,60,1,1,0.662085,1,1,1.05489,0,8,8,3,1,Stimuli/testStimuliCube/6u_s_14.png,Stimuli/testStimuliCube/6u_d_14.png,1,1,,,,,,,,,c,3D
,,,,,,,18,female,A,2020-05-04_18h38.48.129,Remembering_Displays,2020.1.2,MacIntel,60,1,1,0.75359,1,1,0.772105,0,9,9,7,1,Stimuli/testStimuliCube/6u_s_16.png,Stimuli/testStimuliCube/6u_d_16.png,1,1,,,,,,,,,c,3D
,,,,,,,18,female,A,2020-05-04_18h38.48.129,Remembering_Displays,2020.1.2,MacIntel,60,1,1,0.63096,9,1,0.479085,0,10,10,17,1,Stimuli/testStimuliCube/6u_s_15_s.png,Stimuli/testStimuliCube/6u_d_15_s.png,1,1,,,,,,,,,s,3D
,,,,,,,18,female,A,2020-05-04_18h38.48.129,Remembering_Displays,2020.1.2,MacIntel,60,1,1,0.6617,1,0,0.92704,0,11,11,1,1,Stimuli/testStimuliCube/6u_s_13.png,Stimuli/testStimuliCube/6u_d_13.png,1,1,,,,,,,,,c,3D
,,,,,,,18,female,A,2020-05-04_18h38.48.129,Remembering_Displays,2020.1.2,MacIntel,60,1,1,0.547565,9,1,1.344105,0,12,12,15,1,Stimuli/testStimuliCube/6u_s_14_s.png,Stimuli/testStimuliCube/6u_d_14_s.png,1,1,,,,,,,,,s,3D
,,,,,,,18,female,A,2020-05-04_18h38.48.129,Remembering_Displays,2020.1.2,MacIntel,60,9,1,0.502625,1,1,0.5548,0,13,13,12,1,Stimuli/testStimuliCube/6u_s_13_s.png,Stimuli/testStimuliCube/6u_s_13_s.png,0,9,,,,,,,,,s,3D
,,,,,,,18,female,A,2020-05-04_18h38.48.129,Remembering_Displays,2020.1.2,MacIntel,60,9,1,0.721415,9,0,3.019025,0,14,14,0,1,Stimuli/testStimuliCube/6u_s_13.png,Stimuli/testStimuliCube/6u_s_13.png,0,9,,,,,,,,,c,3D
,,,,,,,18,female,A,2020-05-04_18h38.48.129,Remembering_Displays,2020.1.2,MacIntel,60,9,1,0.600435,9,1,0.649705,0,15,15,18,1,Stimuli/testStimuliCube/6u_s_16_s.png,Stimuli/testStimuliCube/6u_s_16_s.png,0,9,,,,,,,,,s,3D
,,,,,,,18,female,A,2020-05-04_18h38.48.129,Remembering_Displays,2020.1.2,MacIntel,60,9,1,1.03619,9,1,0.52125,0,16,16,20,1,Stimuli/testStimuliCube/6u_s_17_s.png,Stimuli/testStimuliCube/6u_s_17_s.png,0,9,,,,,,,,,s,3D
,,,,,,,18,female,A,2020-05-04_18h38.48.129,Remembering_Displays,2020.1.2,MacIntel,60,9,1,0.551465,9,0,0.806285,0,17,17,16,1,Stimuli/testStimuliCube/6u_s_15_s.png,Stimuli/testStimuliCube/6u_s_15_s.png,0,9,,,,,,,,,s,3D
,,,,,,,18,female,A,2020-05-04_18h38.48.129,Remembering_Displays,2020.1.2,MacIntel,60,1,1,0.85647,9,0,0.568995,0,18,18,21,1,Stimuli/testStimuliCube/6u_s_17_s.png,Stimuli/testStimuliCube/6u_d_17_s.png,1,1,,,,,,,,,s,3D
,,,,,,,18,female,A,2020-05-04_18h38.48.129,Remembering_Displays,2020.1.2,MacIntel,60,1,1,0.97178,9,1,0.505045,0,19,19,23,1,Stimuli/testStimuliCube/6u_s_18_s.png,Stimuli/testStimuliCube/6u_d_18_s.png,1,1,,,,,,,,,s,3D
,,,,,,,18,female,A,2020-05-04_18h38.48.129,Remembering_Displays,2020.1.2,MacIntel,60,9,1,0.899305,1,1,1.05105,0,20,20,4,1,Stimuli/testStimuliCube/6u_s_15.png,Stimuli/testStimuliCube/6u_s_15.png,0,9,,,,,,,,,c,3D
,,,,,,,18,female,A,2020-05-04_18h38.48.129,Remembering_Displays,2020.1.2,MacIntel,60,1,0,0.654385,9,1,0.872165,0,21,21,14,1,Stimuli/testStimuliCube/6u_s_14_s.png,Stimuli/testStimuliCube/6u_s_14_s.png,0,9,,,,,,,,,s,3D
,,,,,,,18,female,A,2020-05-04_18h38.48.129,Remembering_Displays,2020.1.2,MacIntel,60,9,0,0.791725,1,1,1.033785,0,22,22,11,1,Stimuli/testStimuliCube/6u_s_18.png,Stimuli/testStimuliCube/6u_d_18.png,1,1,,,,,,,,,c,3D
,,,,,,,18,female,A,2020-05-04_18h38.48.129,Remembering_Displays,2020.1.2,MacIntel,60,1,1,0.645055,1,1,1.536605,0,23,23,19,1,Stimuli/testStimuliCube/6u_s_16_s.png,Stimuli/testStimuliCube/6u_d_16_s.png,1,1,,,,,,,,,s,3D
,,,,,,,18,female,A,2020-05-04_18h38.48.129,Remembering_Displays,2020.1.2,MacIntel,60,,,,,,,,,,,,,,,,0,5,5,5,1,Stimuli/trialListCubes3.xlsx,Instructions/instr_19.png,Progress: 96 of 192 trials completed,,
,,,,,,,18,female,A,2020-05-04_18h38.48.129,Remembering_Displays,2020.1.2,MacIntel,60,1,0,0.59171,9,1,1.09419,0,0,0,20,1,Stimuli/testStimuliSquare/6u_s_17_s_2D.png,Stimuli/testStimuliSquare/6u_s_17_s_2D.png,0,9,,,,,,,,,s,2D
,,,,,,,18,female,A,2020-05-04_18h38.48.129,Remembering_Displays,2020.1.2,MacIntel,60,9,1,1.050855,9,1,0.494795,0,1,1,18,1,Stimuli/testStimuliSquare/6u_s_16_s_2D.png,Stimuli/testStimuliSquare/6u_s_16_s_2D.png,0,9,,,,,,,,,s,2D
,,,,,,,18,female,A,2020-05-04_18h38.48.129,Remembering_Displays,2020.1.2,MacIntel,60,9,1,0.537795,9,1,0.46885,0,2,2,14,1,Stimuli/testStimuliSquare/6u_s_14_s_2D.png,Stimuli/testStimuliSquare/6u_s_14_s_2D.png,0,9,,,,,,,,,s,2D
,,,,,,,18,female,A,2020-05-04_18h38.48.129,Remembering_Displays,2020.1.2,MacIntel,60,9,1,0.445675,1,1,0.53574,0,3,3,22,1,Stimuli/testStimuliSquare/6u_s_18_s_2D.png,Stimuli/testStimuliSquare/6u_s_18_s_2D.png,0,9,,,,,,,,,s,2D
,,,,,,,18,female,A,2020-05-04_18h38.48.129,Remembering_Displays,2020.1.2,MacIntel,60,9,1,0.588975,9,1,0.84033,0,4,4,2,1,Stimuli/testStimuliSquare/6u_s_14_2D.png,Stimuli/testStimuliSquare/6u_s_14_2D.png,0,9,,,,,,,,,c,2D
,,,,,,,18,female,A,2020-05-04_18h38.48.129,Remembering_Displays,2020.1.2,MacIntel,60,1,1,0.58374,1,1,0.503665,0,5,5,7,1,Stimuli/testStimuliSquare/6u_s_16_2D.png,Stimuli/testStimuliSquare/6u_d_16_2D.png,1,1,,,,,,,,,c,2D
,,,,,,,18,female,A,2020-05-04_18h38.48.129,Remembering_Displays,2020.1.2,MacIntel,60,1,1,0.92528,1,1,0.503465,0,6,6,3,1,Stimuli/testStimuliSquare/6u_s_14_2D.png,Stimuli/testStimuliSquare/6u_d_14_2D.png,1,1,,,,,,,,,c,2D
,,,,,,,18,female,A,2020-05-04_18h38.48.129,Remembering_Displays,2020.1.2,MacIntel,60,1,1,0.64172,1,1,0.868865,0,7,7,21,1,Stimuli/testStimuliSquare/6u_s_17_s_2D.png,Stimuli/testStimuliSquare/6u_d_17_s_2D.png,1,1,,,,,,,,,s,2D
,,,,,,,18,female,A,2020-05-04_18h38.48.129,Remembering_Displays,2020.1.2,MacIntel,60,1,1,0.752165,1,1,0.458935,0,8,8,11,1,Stimuli/testStimuliSquare/6u_s_18_2D.png,Stimuli/testStimuliSquare/6u_d_18_2D.png,1,1,,,,,,,,,c,2D
,,,,,,,18,female,A,2020-05-04_18h38.48.129,Remembering_Displays,2020.1.2,MacIntel,60,9,1,1.100275,9,1,0.58466,0,9,9,4,1,Stimuli/testStimuliSquare/6u_s_15_2D.png,Stimuli/testStimuliSquare/6u_s_15_2D.png,0,9,,,,,,,,,c,2D
,,,,,,,18,female,A,2020-05-04_18h38.48.129,Remembering_Displays,2020.1.2,MacIntel,60,1,1,0.815455,9,1,0.84599,0,10,10,13,1,Stimuli/testStimuliSquare/6u_s_13_s_2D.png,Stimuli/testStimuliSquare/6u_d_13_s_2D.png,1,1,,,,,,,,,s,2D
,,,,,,,18,female,A,2020-05-04_18h38.48.129,Remembering_Displays,2020.1.2,MacIntel,60,9,1,0.56584,1,1,1.01908,0,11,11,0,1,Stimuli/testStimuliSquare/6u_s_13_2D.png,Stimuli/testStimuliSquare/6u_s_13_2D.png,0,9,,,,,,,,,c,2D
,,,,,,,18,female,A,2020-05-04_18h38.48.129,Remembering_Displays,2020.1.2,MacIntel,60,9,1,0.782215,1,1,0.52585,0,12,12,8,1,Stimuli/testStimuliSquare/6u_s_17_2D.png,Stimuli/testStimuliSquare/6u_s_17_2D.png,0,9,,,,,,,,,c,2D
,,,,,,,18,female,A,2020-05-04_18h38.48.129,Remembering_Displays,2020.1.2,MacIntel,60,1,1,0.844605,9,1,0.82088,0,13,13,5,1,Stimuli/testStimuliSquare/6u_s_15_2D.png,Stimuli/testStimuliSquare/6u_d_15_2D.png,1,1,,,,,,,,,c,2D
,,,,,,,18,female,A,2020-05-04_18h38.48.129,Remembering_Displays,2020.1.2,MacIntel,60,1,1,0.64622,1,1,0.670045,0,14,14,15,1,Stimuli/testStimuliSquare/6u_s_14_s_2D.png,Stimuli/testStimuliSquare/6u_d_14_s_2D.png,1,1,,,,,,,,,s,2D
,,,,,,,18,female,A,2020-05-04_18h38.48.129,Remembering_Displays,2020.1.2,MacIntel,60,1,1,0.658585,1,1,0.605065,0,15,15,9,1,Stimuli/testStimuliSquare/6u_s_17_2D.png,Stimuli/testStimuliSquare/6u_d_17_2D.png,1,1,,,,,,,,,c,2D
,,,,,,,18,female,A,2020-05-04_18h38.48.129,Remembering_Displays,2020.1.2,MacIntel,60,9,0,0.75752,9,1,1.35609,0,16,16,1,1,Stimuli/testStimuliSquare/6u_s_13_2D.png,Stimuli/testStimuliSquare/6u_d_13_2D.png,1,1,,,,,,,,,c,2D
,,,,,,,18,female,A,2020-05-04_18h38.48.129,Remembering_Displays,2020.1.2,MacIntel,60,1,1,0.67284,1,1,0.32415,0,17,17,19,1,Stimuli/testStimuliSquare/6u_s_16_s_2D.png,Stimuli/testStimuliSquare/6u_d_16_s_2D.png,1,1,,,,,,,,,s,2D
,,,,,,,18,female,A,2020-05-04_18h38.48.129,Remembering_Displays,2020.1.2,MacIntel,60,9,1,0.750075,9,1,1.222525,0,18,18,6,1,Stimuli/testStimuliSquare/6u_s_16_2D.png,Stimuli/testStimuliSquare/6u_s_16_2D.png,0,9,,,,,,,,,c,2D
,,,,,,,18,female,A,2020-05-04_18h38.48.129,Remembering_Displays,2020.1.2,MacIntel,60,1,1,1.09275,1,1,1.04035,0,19,19,17,1,Stimuli/testStimuliSquare/6u_s_15_s_2D.png,Stimuli/testStimuliSquare/6u_d_15_s_2D.png,1,1,,,,,,,,,s,2D
,,,,,,,18,female,A,2020-05-04_18h38.48.129,Remembering_Displays,2020.1.2,MacIntel,60,9,0,0.77704,1,1,0.316925,0,20,20,23,1,Stimuli/testStimuliSquare/6u_s_18_s_2D.png,Stimuli/testStimuliSquare/6u_d_18_s_2D.png,1,1,,,,,,,,,s,2D
,,,,,,,18,female,A,2020-05-04_18h38.48.129,Remembering_Displays,2020.1.2,MacIntel,60,1,0,0.699805,1,1,0.658535,0,21,21,16,1,Stimuli/testStimuliSquare/6u_s_15_s_2D.png,Stimuli/testStimuliSquare/6u_s_15_s_2D.png,0,9,,,,,,,,,s,2D
,,,,,,,18,female,A,2020-05-04_18h38.48.129,Remembering_Displays,2020.1.2,MacIntel,60,9,1,0.792625,9,1,0.421335,0,22,22,10,1,Stimuli/testStimuliSquare/6u_s_18_2D.png,Stimuli/testStimuliSquare/6u_s_18_2D.png,0,9,,,,,,,,,c,2D
,,,,,,,18,female,A,2020-05-04_18h38.48.129,Remembering_Displays,2020.1.2,MacIntel,60,9,1,1.022025,9,1,0.8121,0,23,23,12,1,Stimuli/testStimuliSquare/6u_s_13_s_2D.png,Stimuli/testStimuliSquare/6u_s_13_s_2D.png,0,9,,,,,,,,,s,2D
,,,,,,,18,female,A,2020-05-04_18h38.48.129,Remembering_Displays,2020.1.2,MacIntel,60,,,,,,,,,,,,,,,,0,6,6,6,1,Stimuli/trialListSquares3.xlsx,Instructions/instr_18.png,Progress: 120 of 192 trials completed,,
,,,,,,,18,female,A,2020-05-04_18h38.48.129,Remembering_Displays,2020.1.2,MacIntel,60,1,1,0.745255,9,1,1.29008,0,0,0,11,1,Stimuli/testStimuliCube/6u_s_12.png,Stimuli/testStimuliCube/6u_d_12.png,1,1,,,,,,,,,c,3D
,,,,,,,18,female,A,2020-05-04_18h38.48.129,Remembering_Displays,2020.1.2,MacIntel,60,9,1,0.57246,1,1,0.37675,0,1,1,22,1,Stimuli/testStimuliCube/6u_s_12_s.png,Stimuli/testStimuliCube/6u_s_12_s.png,0,9,,,,,,,,,s,3D
,,,,,,,18,female,A,2020-05-04_18h38.48.129,Remembering_Displays,2020.1.2,MacIntel,60,1,1,0.938735,1,1,0.522315,0,2,2,3,1,Stimuli/testStimuliCube/6u_s_8.png,Stimuli/testStimuliCube/6u_d_8.png,1,1,,,,,,,,,c,3D
,,,,,,,18,female,A,2020-05-04_18h38.48.129,Remembering_Displays,2020.1.2,MacIntel,60,1,1,0.660965,9,1,0.504565,0,3,3,19,1,Stimuli/testStimuliCube/6u_s_10_s.png,Stimuli/testStimuliCube/6u_d_10_s.png,1,1,,,,,,,,,s,3D
,,,,,,,18,female,A,2020-05-04_18h38.48.129,Remembering_Displays,2020.1.2,MacIntel,60,1,1,0.573005,9,1,0.470805,0,4,4,1,1,Stimuli/testStimuliCube/6u_s_7.png,Stimuli/testStimuliCube/6u_d_7.png,1,1,,,,,,,,,c,3D
,,,,,,,18,female,A,2020-05-04_18h38.48.129,Remembering_Displays,2020.1.2,MacIntel,60,1,1,0.55676,1,1,0.41916,0,5,5,9,1,Stimuli/testStimuliCube/6u_s_11.png,Stimuli/testStimuliCube/6u_d_11.png,1,1,,,,,,,,,c,3D
,,,,,,,18,female,A,2020-05-04_18h38.48.129,Remembering_Displays,2020.1.2,MacIntel,60,1,1,0.557095,1,1,0.42273,0,6,6,17,1,Stimuli/testStimuliCube/6u_s_9_s.png,Stimuli/testStimuliCube/6u_d_9_s.png,1,1,,,,,,,,,s,3D
,,,,,,,18,female,A,2020-05-04_18h38.48.129,Remembering_Displays,2020.1.2,MacIntel,60,1,1,0.59046,9,1,0.906255,0,7,7,21,1,Stimuli/testStimuliCube/6u_s_11_s.png,Stimuli/testStimuliCube/6u_d_11_s.png,1,1,,,,,,,,,s,3D
,,,,,,,18,female,A,2020-05-04_18h38.48.129,Remembering_Displays,2020.1.2,MacIntel,60,9,1,0.655355,1,1,0.647775,0,8,8,16,1,Stimuli/testStimuliCube/6u_s_9_s.png,Stimuli/testStimuliCube/6u_s_9_s.png,0,9,,,,,,,,,s,3D
,,,,,,,18,female,A,2020-05-04_18h38.48.129,Remembering_Displays,2020.1.2,MacIntel,60,9,0,0.78429,1,1,0.55597,0,9,9,15,1,Stimuli/testStimuliCube/6u_s_8_s.png,Stimuli/testStimuliCube/6u_d_8_s.png,1,1,,,,,,,,,s,3D
,,,,,,,18,female,A,2020-05-04_18h38.48.129,Remembering_Displays,2020.1.2,MacIntel,60,9,1,1.265585,1,1,1.63608,0,10,10,0,1,Stimuli/testStimuliCube/6u_s_7.png,Stimuli/testStimuliCube/6u_s_7.png,0,9,,,,,,,,,c,3D
,,,,,,,18,female,A,2020-05-04_18h38.48.129,Remembering_Displays,2020.1.2,MacIntel,60,1,1,0.69551,9,1,0.47534,0,11,11,5,1,Stimuli/testStimuliCube/6u_s_9.png,Stimuli/testStimuliCube/6u_d_9.png,1,1,,,,,,,,,c,3D
,,,,,,,18,female,A,2020-05-04_18h38.48.129,Remembering_Displays,2020.1.2,MacIntel,60,9,1,0.847495,1,1,0.41774,0,12,12,10,1,Stimuli/testStimuliCube/6u_s_12.png,Stimuli/testStimuliCube/6u_s_12.png,0,9,,,,,,,,,c,3D
,,,,,,,18,female,A,2020-05-04_18h38.48.129,Remembering_Displays,2020.1.2,MacIntel,60,9,1,0.60433,9,1,0.486195,0,13,13,18,1,Stimuli/testStimuliCube/6u_s_10_s.png,Stimuli/testStimuliCube/6u_s_10_s.png,0,9,,,,,,,,,s,3D
,,,,,,,18,female,A,2020-05-04_18h38.48.129,Remembering_Displays,2020.1.2,MacIntel,60,9,1,0.567155,1,1,0.48468,0,14,14,14,1,Stimuli/testStimuliCube/6u_s_8_s.png,Stimuli/testStimuliCube/6u_s_8_s.png,0,9,,,,,,,,,s,3D
,,,,,,,18,female,A,2020-05-04_18h38.48.129,Remembering_Displays,2020.1.2,MacIntel,60,9,1,0.6339,1,1,1.175375,0,15,15,12,1,Stimuli/testStimuliCube/6u_s_7_s.png,Stimuli/testStimuliCube/6u_s_7_s.png,0,9,,,,,,,,,s,3D
,,,,,,,18,female,A,2020-05-04_18h38.48.129,Remembering_Displays,2020.1.2,MacIntel,60,1,1,0.55834,1,1,0.409655,0,16,16,7,1,Stimuli/testStimuliCube/6u_s_10.png,Stimuli/testStimuliCube/6u_d_10.png,1,1,,,,,,,,,c,3D
,,,,,,,18,female,A,2020-05-04_18h38.48.129,Remembering_Displays,2020.1.2,MacIntel,60,9,1,0.566605,1,1,0.385295,0,17,17,4,1,Stimuli/testStimuliCube/6u_s_9.png,Stimuli/testStimuliCube/6u_s_9.png,0,9,,,,,,,,,c,3D
,,,,,,,18,female,A,2020-05-04_18h38.48.129,Remembering_Displays,2020.1.2,MacIntel,60,1,0,0.864505,9,1,0.47442,0,18,18,6,1,Stimuli/testStimuliCube/6u_s_10.png,Stimuli/testStimuliCube/6u_s_10.png,0,9,,,,,,,,,c,3D
,,,,,,,18,female,A,2020-05-04_18h38.48.129,Remembering_Displays,2020.1.2,MacIntel,60,9,1,0.886355,1,1,0.409725,0,19,19,2,1,Stimuli/testStimuliCube/6u_s_8.png,Stimuli/testStimuliCube/6u_s_8.png,0,9,,,,,,,,,c,3D
,,,,,,,18,female,A,2020-05-04_18h38.48.129,Remembering_Displays,2020.1.2,MacIntel,60,1,1,0.76475,1,1,0.86939,0,20,20,13,1,Stimuli/testStimuliCube/6u_s_7_s.png,Stimuli/testStimuliCube/6u_d_7_s.png,1,1,,,,,,,,,s,3D
,,,,,,,18,female,A,2020-05-04_18h38.48.129,Remembering_Displays,2020.1.2,MacIntel,60,9,1,0.5204,1,1,0.55233,0,21,21,20,1,Stimuli/testStimuliCube/6u_s_11_s.png,Stimuli/testStimuliCube/6u_s_11_s.png,0,9,,,,,,,,,s,3D
,,,,,,,18,female,A,2020-05-04_18h38.48.129,Remembering_Displays,2020.1.2,MacIntel,60,9,1,0.567955,1,1,0.533875,0,22,22,8,1,Stimuli/testStimuliCube/6u_s_11.png,Stimuli/testStimuliCube/6u_s_11.png,0,9,,,,,,,,,c,3D
,,,,,,,18,female,A,2020-05-04_18h38.48.129,Remembering_Displays,2020.1.2,MacIntel,60,1,1,0.60763,9,1,0.31,0,23,23,23,1,Stimuli/testStimuliCube/6u_s_12_s.png,Stimuli/testStimuliCube/6u_d_12_s.png,1,1,,,,,,,,,s,3D
,,,,,,,18,female,A,2020-05-04_18h38.48.129,Remembering_Displays,2020.1.2,MacIntel,60,,,,,,,,,,,,,,,,0,7,7,7,1,Stimuli/trialListCubes2.xlsx,Instructions/instr_19.png,Progress: 144 of 192 trials completed,,
,,,,,,,18,female,A,2020-05-04_18h38.48.129,Remembering_Displays,2020.1.2,MacIntel,60,1,0,0.48313,9,1,0.68878,0,0,0,16,1,Stimuli/testStimuliSquare/6u_s_21_s_2D.png,Stimuli/testStimuliSquare/6u_s_21_s_2D.png,0,9,,,,,,,,,s,2D
,,,,,,,18,female,A,2020-05-04_18h38.48.129,Remembering_Displays,2020.1.2,MacIntel,60,1,0,1.066705,1,1,0.52403,0,1,1,4,1,Stimuli/testStimuliSquare/6u_s_21_2D.png,Stimuli/testStimuliSquare/6u_s_21_2D.png,0,9,,,,,,,,,c,2D
,,,,,,,18,female,A,2020-05-04_18h38.48.129,Remembering_Displays,2020.1.2,MacIntel,60,9,1,0.53791,1,1,0.5188,0,2,2,0,1,Stimuli/testStimuliSquare/6u_s_19_2D.png,Stimuli/testStimuliSquare/6u_s_19_2D.png,0,9,,,,,,,,,c,2D
,,,,,,,18,female,A,2020-05-04_18h38.48.129,Remembering_Displays,2020.1.2,MacIntel,60,9,1,0.563885,9,1,0.800565,0,3,3,6,1,Stimuli/testStimuliSquare/6u_s_22_2D.png,Stimuli/testStimuliSquare/6u_s_22_2D.png,0,9,,,,,,,,,c,2D
,,,,,,,18,female,A,2020-05-04_18h38.48.129,Remembering_Displays,2020.1.2,MacIntel,60,1,1,0.57809,1,1,0.652675,0,4,4,19,1,Stimuli/testStimuliSquare/6u_s_22_s_2D.png,Stimuli/testStimuliSquare/6u_d_22_s_2D.png,1,1,,,,,,,,,s,2D
,,,,,,,18,female,A,2020-05-04_18h38.48.129,Remembering_Displays,2020.1.2,MacIntel,60,9,1,0.61522,9,1,1.56053,0,5,5,10,1,Stimuli/testStimuliSquare/6u_s_24_2D.png,Stimuli/testStimuliSquare/6u_s_24_2D.png,0,9,,,,,,,,,c,2D
,,,,,,,18,female,A,2020-05-04_18h38.48.129,Remembering_Displays,2020.1.2,MacIntel,60,9,1,0.60091,9,1,0.413705,0,6,6,18,1,Stimuli/testStimuliSquare/6u_s_22_s_2D.png,Stimuli/testStimuliSquare/6u_s_22_s_2D.png,0,9,,,,,,,,,s,2D
,,,,,,,18,female,A,2020-05-04_18h38.48.129,Remembering_Displays,2020.1.2,MacIntel,60,1,1,0.777565,1,1,0.68909,0,7,7,1,1,Stimuli/testStimuliSquare/6u_s_19_2D.png,Stimuli/testStimuliSquare/6u_d_19_2D.png,1,1,,,,,,,,,c,2D
,,,,,,,18,female,A,2020-05-04_18h38.48.129,Remembering_Displays,2020.1.2,MacIntel,60,1,1,0.676195,1,1,0.675705,0,8,8,21,1,Stimuli/testStimuliSquare/6u_s_23_s_2D.png,Stimuli/testStimuliSquare/6u_d_23_s_2D.png,1,1,,,,,,,,,s,2D
,,,,,,,18,female,A,2020-05-04_18h38.48.129,Remembering_Displays,2020.1.2,MacIntel,60,1,1,0.64052,1,1,0.37494,0,9,9,23,1,Stimuli/testStimuliSquare/6u_s_24_s_2D.png,Stimuli/testStimuliSquare/6u_d_24_s_2D.png,1,1,,,,,,,,,s,2D
,,,,,,,18,female,A,2020-05-04_18h38.48.129,Remembering_Displays,2020.1.2,MacIntel,60,1,1,0.54609,9,1,0.50312,0,10,10,15,1,Stimuli/testStimuliSquare/6u_s_20_s_2D.png,Stimuli/testStimuliSquare/6u_d_20_s_2D.png,1,1,,,,,,,,,s,2D
,,,,,,,18,female,A,2020-05-04_18h38.48.129,Remembering_Displays,2020.1.2,MacIntel,60,9,1,0.514965,9,1,0.41075,0,11,11,8,1,Stimuli/testStimuliSquare/6u_s_23_2D.png,Stimuli/testStimuliSquare/6u_s_23_2D.png,0,9,,,,,,,,,c,2D
,,,,,,,18,female,A,2020-05-04_18h38.48.129,Remembering_Displays,2020.1.2,MacIntel,60,9,1,0.61792,1,1,0.608215,0,12,12,22,1,Stimuli/testStimuliSquare/6u_s_24_s_2D.png,Stimuli/testStimuliSquare/6u_s_24_s_2D.png,0,9,,,,,,,,,s,2D
,,,,,,,18,female,A,2020-05-04_18h38.48.129,Remembering_Displays,2020.1.2,MacIntel,60,9,1,1.048725,9,1,0.57339,0,13,13,2,1,Stimuli/testStimuliSquare/6u_s_20_2D.png,Stimuli/testStimuliSquare/6u_s_20_2D.png,0,9,,,,,,,,,c,2D
,,,,,,,18,female,A,2020-05-04_18h38.48.129,Remembering_Displays,2020.1.2,MacIntel,60,1,1,0.5817,1,1,0.506355,0,14,14,13,1,Stimuli/testStimuliSquare/6u_s_19_s_2D.png,Stimuli/testStimuliSquare/6u_d_19_s_2D.png,1,1,,,,,,,,,s,2D
,,,,,,,18,female,A,2020-05-04_18h38.48.129,Remembering_Displays,2020.1.2,MacIntel,60,9,1,0.63216,9,1,0.922815,0,15,15,14,1,Stimuli/testStimuliSquare/6u_s_20_s_2D.png,Stimuli/testStimuliSquare/6u_s_20_s_2D.png,0,9,,,,,,,,,s,2D
,,,,,,,18,female,A,2020-05-04_18h38.48.129,Remembering_Displays,2020.1.2,MacIntel,60,9,1,0.80619,1,1,1.318975,0,16,16,12,1,Stimuli/testStimuliSquare/6u_s_19_s_2D.png,Stimuli/testStimuliSquare/6u_s_19_s_2D.png,0,9,,,,,,,,,s,2D
,,,,,,,18,female,A,2020-05-04_18h38.48.129,Remembering_Displays,2020.1.2,MacIntel,60,1,1,0.76251,9,1,0.954305,0,17,17,7,1,Stimuli/testStimuliSquare/6u_s_22_2D.png,Stimuli/testStimuliSquare/6u_d_22_2D.png,1,1,,,,,,,,,c,2D
,,,,,,,18,female,A,2020-05-04_18h38.48.129,Remembering_Displays,2020.1.2,MacIntel,60,1,1,0.61056,9,1,1.336975,0,18,18,9,1,Stimuli/testStimuliSquare/6u_s_23_2D.png,Stimuli/testStimuliSquare/6u_d_23_2D.png,1,1,,,,,,,,,c,2D
,,,,,,,18,female,A,2020-05-04_18h38.48.129,Remembering_Displays,2020.1.2,MacIntel,60,1,1,0.49262,9,1,1.855895,0,19,19,5,1,Stimuli/testStimuliSquare/6u_s_21_2D.png,Stimuli/testStimuliSquare/6u_d_21_2D.png,1,1,,,,,,,,,c,2D
,,,,,,,18,female,A,2020-05-04_18h38.48.129,Remembering_Displays,2020.1.2,MacIntel,60,1,1,0.57604,9,1,0.468365,0,20,20,11,1,Stimuli/testStimuliSquare/6u_s_24_2D.png,Stimuli/testStimuliSquare/6u_d_24_2D.png,1,1,,,,,,,,,c,2D
,,,,,,,18,female,A,2020-05-04_18h38.48.129,Remembering_Displays,2020.1.2,MacIntel,60,1,1,0.79247,9,1,0.97792,0,21,21,17,1,Stimuli/testStimuliSquare/6u_s_21_s_2D.png,Stimuli/testStimuliSquare/6u_d_21_s_2D.png,1,1,,,,,,,,,s,2D
,,,,,,,18,female,A,2020-05-04_18h38.48.129,Remembering_Displays,2020.1.2,MacIntel,60,1,1,0.476905,9,1,0.519325,0,22,22,3,1,Stimuli/testStimuliSquare/6u_s_20_2D.png,Stimuli/testStimuliSquare/6u_d_20_2D.png,1,1,,,,,,,,,c,2D
,,,,,,,18,female,A,2020-05-04_18h38.48.129,Remembering_Displays,2020.1.2,MacIntel,60,9,1,0.60798,1,1,0.71794,0,23,23,20,1,Stimuli/testStimuliSquare/6u_s_23_s_2D.png,Stimuli/testStimuliSquare/6u_s_23_s_2D.png,0,9,,,,,,,,,s,2D
,,,,,,,18,female,A,2020-05-04_18h38.48.129,Remembering_Displays,2020.1.2,MacIntel,60,,,,,,,,,,,,,,,,0,8,8,8,1,Stimuli/trialListSquares4.xlsx,Instructions/instr_18.png,Progress: 168 of 192 trials completed,,
,,,,,,,18,female,A,2020-05-04_18h38.48.129,Remembering_Displays,2020.1.2,MacIntel,60,9,1,0.600265,9,0,4.95069,0,0,0,14,1,Stimuli/testStimuliCube/6u_s_2_s.png,Stimuli/testStimuliCube/6u_s_2_s.png,0,9,,,,,,,,,s,3D
,,,,,,,18,female,A,2020-05-04_18h38.48.129,Remembering_Displays,2020.1.2,MacIntel,60,9,1,0.598155,1,1,0.336075,0,1,1,20,1,Stimuli/testStimuliCube/6u_s_5_s.png,Stimuli/testStimuliCube/6u_s_5_s.png,0,9,,,,,,,,,s,3D
,,,,,,,18,female,A,2020-05-04_18h38.48.129,Remembering_Displays,2020.1.2,MacIntel,60,9,1,1.08404,1,0,0.516985,0,2,2,0,1,Stimuli/testStimuliCube/6u_s_1.png,Stimuli/testStimuliCube/6u_s_1.png,0,9,,,,,,,,,c,3D
,,,,,,,18,female,A,2020-05-04_18h38.48.129,Remembering_Displays,2020.1.2,MacIntel,60,9,1,0.750735,1,1,1.603395,0,3,3,22,1,Stimuli/testStimuliCube/6u_s_6_s.png,Stimuli/testStimuliCube/6u_s_6_s.png,0,9,,,,,,,,,s,3D
,,,,,,,18,female,A,2020-05-04_18h38.48.129,Remembering_Displays,2020.1.2,MacIntel,60,9,0,0.637995,9,1,0.55943,0,4,4,9,1,Stimuli/testStimuliCube/6u_s_5.png,Stimuli/testStimuliCube/6u_d_5.png,1,1,,,,,,,,,c,3D
,,,,,,,18,female,A,2020-05-04_18h38.48.129,Remembering_Displays,2020.1.2,MacIntel,60,1,1,0.61476,9,1,0.57484,0,5,5,13,1,Stimuli/testStimuliCube/6u_s_1_s.png,Stimuli/testStimuliCube/6u_d_1_s.png,1,1,,,,,,,,,s,3D
,,,,,,,18,female,A,2020-05-04_18h38.48.129,Remembering_Displays,2020.1.2,MacIntel,60,9,1,0.76862,1,1,0.651885,0,6,6,10,1,Stimuli/testStimuliCube/6u_s_6.png,Stimuli/testStimuliCube/6u_s_6.png,0,9,,,,,,,,,c,3D
,,,,,,,18,female,A,2020-05-04_18h38.48.129,Remembering_Displays,2020.1.2,MacIntel,60,1,1,0.80142,9,1,0.836405,0,7,7,17,1,Stimuli/testStimuliCube/6u_s_3_s.png,Stimuli/testStimuliCube/6u_d_3_s.png,1,1,,,,,,,,,s,3D
,,,,,,,18,female,A,2020-05-04_18h38.48.129,Remembering_Displays,2020.1.2,MacIntel,60,9,1,0.601015,9,1,0.86961,0,8,8,4,1,Stimuli/testStimuliCube/6u_s_3.png,Stimuli/testStimuliCube/6u_s_3.png,0,9,,,,,,,,,c,3D
,,,,,,,18,female,A,2020-05-04_18h38.48.129,Remembering_Displays,2020.1.2,MacIntel,60,9,1,0.800315,9,1,0.38012,0,9,9,12,1,Stimuli/testStimuliCube/6u_s_1_s.png,Stimuli/testStimuliCube/6u_s_1_s.png,0,9,,,,,,,,,s,3D
,,,,,,,18,female,A,2020-05-04_18h38.48.129,Remembering_Displays,2020.1.2,MacIntel,60,9,1,0.68251,9,1,0.44149,0,10,10,2,1,Stimuli/testStimuliCube/6u_s_2.png,Stimuli/testStimuliCube/6u_s_2.png,0,9,,,,,,,,,c,3D
,,,,,,,18,female,A,2020-05-04_18h38.48.129,Remembering_Displays,2020.1.2,MacIntel,60,9,1,0.652135,1,1,0.955765,0,11,11,8,1,Stimuli/testStimuliCube/6u_s_5.png,Stimuli/testStimuliCube/6u_s_5.png,0,9,,,,,,,,,c,3D
,,,,,,,18,female,A,2020-05-04_18h38.48.129,Remembering_Displays,2020.1.2,MacIntel,60,1,1,0.69954,9,1,0.54164,0,12,12,15,1,Stimuli/testStimuliCube/6u_s_2_s.png,Stimuli/testStimuliCube/6u_d_2_s.png,1,1,,,,,,,,,s,3D
,,,,,,,18,female,A,2020-05-04_18h38.48.129,Remembering_Displays,2020.1.2,MacIntel,60,9,1,0.55327,9,1,0.66791,0,13,13,16,1,Stimuli/testStimuliCube/6u_s_3_s.png,Stimuli/testStimuliCube/6u_s_3_s.png,0,9,,,,,,,,,s,3D
,,,,,,,18,female,A,2020-05-04_18h38.48.129,Remembering_Displays,2020.1.2,MacIntel,60,1,1,0.57079,1,1,0.398245,0,14,14,1,1,Stimuli/testStimuliCube/6u_s_1.png,Stimuli/testStimuliCube/6u_d_1.png,1,1,,,,,,,,,c,3D
,,,,,,,18,female,A,2020-05-04_18h38.48.129,Remembering_Displays,2020.1.2,MacIntel,60,9,1,0.588205,1,1,0.7268,0,15,15,6,1,Stimuli/testStimuliCube/6u_s_4.png,Stimuli/testStimuliCube/6u_s_4.png,0,9,,,,,,,,,c,3D
,,,,,,,18,female,A,2020-05-04_18h38.48.129,Remembering_Displays,2020.1.2,MacIntel,60,1,1,0.543195,9,1,0.753755,0,16,16,23,1,Stimuli/testStimuliCube/6u_s_6_s.png,Stimuli/testStimuliCube/6u_d_6_s.png,1,1,,,,,,,,,s,3D
,,,,,,,18,female,A,2020-05-04_18h38.48.129,Remembering_Displays,2020.1.2,MacIntel,60,1,1,0.51533,1,1,0.73342,0,17,17,19,1,Stimuli/testStimuliCube/6u_s_4_s.png,Stimuli/testStimuliCube/6u_d_4_s.png,1,1,,,,,,,,,s,3D
,,,,,,,18,female,A,2020-05-04_18h38.48.129,Remembering_Displays,2020.1.2,MacIntel,60,1,0,0.51779,1,1,0.60528,0,18,18,18,1,Stimuli/testStimuliCube/6u_s_4_s.png,Stimuli/testStimuliCube/6u_s_4_s.png,0,9,,,,,,,,,s,3D
,,,,,,,18,female,A,2020-05-04_18h38.48.129,Remembering_Displays,2020.1.2,MacIntel,60,1,1,0.571535,9,1,1.191515,0,19,19,7,1,Stimuli/testStimuliCube/6u_s_4.png,Stimuli/testStimuliCube/6u_d_4.png,1,1,,,,,,,,,c,3D
,,,,,,,18,female,A,2020-05-04_18h38.48.129,Remembering_Displays,2020.1.2,MacIntel,60,1,1,1.223505,9,1,0.74155,0,20,20,11,1,Stimuli/testStimuliCube/6u_s_6.png,Stimuli/testStimuliCube/6u_d_6.png,1,1,,,,,,,,,c,3D
,,,,,,,18,female,A,2020-05-04_18h38.48.129,Remembering_Displays,2020.1.2,MacIntel,60,1,1,0.692615,9,1,0.645355,0,21,21,5,1,Stimuli/testStimuliCube/6u_s_3.png,Stimuli/testStimuliCube/6u_d_3.png,1,1,,,,,,,,,c,3D
,,,,,,,18,female,A,2020-05-04_18h38.48.129,Remembering_Displays,2020.1.2,MacIntel,60,1,1,0.72588,1,1,0.41122,0,22,22,3,1,Stimuli/testStimuliCube/6u_s_2.png,Stimuli/testStimuliCube/6u_d_2.png,1,1,,,,,,,,,c,3D
,,,,,,,18,female,A,2020-05-04_18h38.48.129,Remembering_Displays,2020.1.2,MacIntel,60,9,0,0.88197,9,1,0.506295,0,23,23,21,1,Stimuli/testStimuliCube/6u_s_5_s.png,Stimuli/testStimuliCube/6u_d_5_s.png,1,1,,,,,,,,,s,3D