instr_Loop.thisRepN,instr_Loop.thisTrialN,instr_Loop.thisN,instr_Loop.thisIndex,instr_Loop.ran,instructionImage,time,age,sex (female/male),order,date,expName,psychopyVersion,OS,frameRate,struc_judge_respond.keys,struc_judge_respond.corr,struc_judge_respond.rt,dual_respond.keys,dual_respond.corr,dual_respond.rt,trials.thisRepN,trials.thisTrialN,trials.thisN,trials.thisIndex,trials.ran,stim1,stim2,isAnyChange,corrAns,selectBlock.thisRepN,selectBlock.thisTrialN,selectBlock.thisN,selectBlock.thisIndex,selectBlock.ran,condsFile,condsImage,remaining,connected,dimensionality
0,0,0,0,1,Instructions/instr_1.png,5,21,male,A,2020-05-04_22h41.59.244,Remembering_Displays,2020.1.2,Win32,60,,,,,,,,,,,,,,,,,,,,,,,,,
0,1,1,1,1,Instructions/instr_2.png,3,21,male,A,2020-05-04_22h41.59.244,Remembering_Displays,2020.1.2,Win32,60,,,,,,,,,,,,,,,,,,,,,,,,,
0,2,2,2,1,Instructions/instr_3.png,5,21,male,A,2020-05-04_22h41.59.244,Remembering_Displays,2020.1.2,Win32,60,,,,,,,,,,,,,,,,,,,,,,,,,
0,3,3,3,1,Instructions/instr_4.png,1,21,male,A,2020-05-04_22h41.59.244,Remembering_Displays,2020.1.2,Win32,60,,,,,,,,,,,,,,,,,,,,,,,,,
0,4,4,4,1,Instructions/instr_5.png,1,21,male,A,2020-05-04_22h41.59.244,Remembering_Displays,2020.1.2,Win32,60,,,,,,,,,,,,,,,,,,,,,,,,,
0,5,5,5,1,Instructions/instr_6.png,1,21,male,A,2020-05-04_22h41.59.244,Remembering_Displays,2020.1.2,Win32,60,,,,,,,,,,,,,,,,,,,,,,,,,
0,6,6,6,1,Instructions/instr_7.png,1,21,male,A,2020-05-04_22h41.59.244,Remembering_Displays,2020.1.2,Win32,60,,,,,,,,,,,,,,,,,,,,,,,,,
0,7,7,7,1,Instructions/instr_8.png,3,21,male,A,2020-05-04_22h41.59.244,Remembering_Displays,2020.1.2,Win32,60,,,,,,,,,,,,,,,,,,,,,,,,,
0,8,8,8,1,Instructions/instr_9.png,3,21,male,A,2020-05-04_22h41.59.244,Remembering_Displays,2020.1.2,Win32,60,,,,,,,,,,,,,,,,,,,,,,,,,
0,9,9,9,1,Instructions/instr_10.png,3,21,male,A,2020-05-04_22h41.59.244,Remembering_Displays,2020.1.2,Win32,60,,,,,,,,,,,,,,,,,,,,,,,,,
0,10,10,10,1,Instructions/instr_11.png,3,21,male,A,2020-05-04_22h41.59.244,Remembering_Displays,2020.1.2,Win32,60,,,,,,,,,,,,,,,,,,,,,,,,,
0,11,11,11,1,Instructions/instr_12.png,3,21,male,A,2020-05-04_22h41.59.244,Remembering_Displays,2020.1.2,Win32,60,,,,,,,,,,,,,,,,,,,,,,,,,
0,12,12,12,1,Instructions/instr_13.png,3,21,male,A,2020-05-04_22h41.59.244,Remembering_Displays,2020.1.2,Win32,60,,,,,,,,,,,,,,,,,,,,,,,,,
0,13,13,13,1,Instructions/instr_14.png,3,21,male,A,2020-05-04_22h41.59.244,Remembering_Displays,2020.1.2,Win32,60,,,,,,,,,,,,,,,,,,,,,,,,,
0,14,14,14,1,Instructions/instr_15.png,3,21,male,A,2020-05-04_22h41.59.244,Remembering_Displays,2020.1.2,Win32,60,,,,,,,,,,,,,,,,,,,,,,,,,
0,15,15,15,1,Instructions/instr_16.png,5,21,male,A,2020-05-04_22h41.59.244,Remembering_Displays,2020.1.2,Win32,60,,,,,,,,,,,,,,,,,,,,,,,,,
,,,,,,,21,male,A,2020-05-04_22h41.59.244,Remembering_Displays,2020.1.2,Win32,60,1,1,1.34849,9,1,9.66177,0,0,0,6,1,Stimuli/practiceStimuliSquare/practice3_s.png,Stimuli/practiceStimuliSquare/practice3_d.png,1,1,,,,,,,,,,
,,,,,,,21,male,A,2020-05-04_22h41.59.244,Remembering_Displays,2020.1.2,Win32,60,1,1,1.11515,1,1,1.36007,0,1,1,1,1,Stimuli/practiceStimuliSquare/practice2_s.png,Stimuli/practiceStimuliSquare/practice2_d.png,1,1,,,,,,,,,,
,,,,,,,21,male,A,2020-05-04_22h41.59.244,Remembering_Displays,2020.1.2,Win32,60,1,1,1.088235,1,1,1.03672,0,2,2,4,1,Stimuli/practiceStimuliSquare/practice1_s.png,Stimuli/practiceStimuliSquare/practice1_d.png,1,1,,,,,,,,,,
,,,,,,,21,male,A,2020-05-04_22h41.59.244,Remembering_Displays,2020.1.2,Win32,60,9,1,0.86758,1,1,1.175475,0,3,3,0,1,Stimuli/practiceStimuliSquare/practice1_s.png,Stimuli/practiceStimuliSquare/practice1_s.png,0,9,,,,,,,,,,
,,,,,,,21,male,A,2020-05-04_22h41.59.244,Remembering_Displays,2020.1.2,Win32,60,9,1,0.99042,9,1,1.539415,0,4,4,7,1,Stimuli/practiceStimuliSquare/practice4_s.png,Stimuli/practiceStimuliSquare/practice4_s.png,0,9,,,,,,,,,,
,,,,,,,21,male,A,2020-05-04_22h41.59.244,Remembering_Displays,2020.1.2,Win32,60,,0,,1,1,6.20438,0,5,5,2,1,Stimuli/practiceStimuliSquare/practice3_s.png,Stimuli/practiceStimuliSquare/practice3_s.png,0,9,,,,,,,,,,
,,,,,,,21,male,A,2020-05-04_22h41.59.244,Remembering_Displays,2020.1.2,Win32,60,1,1,1.04022,1,1,0.93104,0,6,6,3,1,Stimuli/practiceStimuliSquare/practice4_s.png,Stimuli/practiceStimuliSquare/practice4_d.png,1,1,,,,,,,,,,
,,,,,,,21,male,A,2020-05-04_22h41.59.244,Remembering_Displays,2020.1.2,Win32,60,9,1,0.78598,9,1,0.50157,0,7,7,5,1,Stimuli/practiceStimuliSquare/practice2_s.png,Stimuli/practiceStimuliSquare/practice2_s.png,0,9,,,,,,,,,,
,,,,,,,21,male,A,2020-05-04_22h41.59.244,Remembering_Displays,2020.1.2,Win32,60,,,,,,,,,,,,,,,,0,0,0,0,1,Stimuli/practiceListSquares.xlsx,Instructions/instr_practice_A.png,Practice trials completed,,
,,,,,,,21,male,A,2020-05-04_22h41.59.244,Remembering_Displays,2020.1.2,Win32,60,9,1,0.857175,9,1,2.24672,0,0,0,4,1,Stimuli/testStimuliSquare/6u_s_3_2D.png,Stimuli/testStimuliSquare/6u_s_3_2D.png,0,9,,,,,,,,,c,2D
,,,,,,,21,male,A,2020-05-04_22h41.59.244,Remembering_Displays,2020.1.2,Win32,60,1,1,0.73807,1,1,1.231355,0,1,1,15,1,Stimuli/testStimuliSquare/6u_s_2_s_2D.png,Stimuli/testStimuliSquare/6u_d_2_s_2D.png,1,1,,,,,,,,,s,2D
,,,,,,,21,male,A,2020-05-04_22h41.59.244,Remembering_Displays,2020.1.2,Win32,60,9,1,0.932455,9,1,0.757415,0,2,2,16,1,Stimuli/testStimuliSquare/6u_s_3_s_2D.png,Stimuli/testStimuliSquare/6u_s_3_s_2D.png,0,9,,,,,,,,,s,2D
,,,,,,,21,male,A,2020-05-04_22h41.59.244,Remembering_Displays,2020.1.2,Win32,60,9,0,1.3788,9,1,1.2274,0,3,3,21,1,Stimuli/testStimuliSquare/6u_s_5_s_2D.png,Stimuli/testStimuliSquare/6u_d_5_s_2D.png,1,1,,,,,,,,,s,2D
,,,,,,,21,male,A,2020-05-04_22h41.59.244,Remembering_Displays,2020.1.2,Win32,60,1,1,0.771775,1,1,1.002335,0,4,4,5,1,Stimuli/testStimuliSquare/6u_s_3_2D.png,Stimuli/testStimuliSquare/6u_d_3_2D.png,1,1,,,,,,,,,c,2D
,,,,,,,21,male,A,2020-05-04_22h41.59.244,Remembering_Displays,2020.1.2,Win32,60,9,1,0.98463,9,1,0.943,0,5,5,8,1,Stimuli/testStimuliSquare/6u_s_5_2D.png,Stimuli/testStimuliSquare/6u_s_5_2D.png,0,9,,,,,,,,,c,2D
,,,,,,,21,male,A,2020-05-04_22h41.59.244,Remembering_Displays,2020.1.2,Win32,60,1,1,0.675895,9,0,0.93309,0,6,6,11,1,Stimuli/testStimuliSquare/6u_s_6_2D.png,Stimuli/testStimuliSquare/6u_d_6_2D.png,1,1,,,,,,,,,c,2D
,,,,,,,21,male,A,2020-05-04_22h41.59.244,Remembering_Displays,2020.1.2,Win32,60,1,1,0.858705,9,1,0.97593,0,7,7,7,1,Stimuli/testStimuliSquare/6u_s_4_2D.png,Stimuli/testStimuliSquare/6u_d_4_2D.png,1,1,,,,,,,,,c,2D
,,,,,,,21,male,A,2020-05-04_22h41.59.244,Remembering_Displays,2020.1.2,Win32,60,1,1,0.84465,1,1,0.62327,0,8,8,19,1,Stimuli/testStimuliSquare/6u_s_4_s_2D.png,Stimuli/testStimuliSquare/6u_d_4_s_2D.png,1,1,,,,,,,,,s,2D
,,,,,,,21,male,A,2020-05-04_22h41.59.244,Remembering_Displays,2020.1.2,Win32,60,1,1,0.76717,1,1,0.744235,0,9,9,3,1,Stimuli/testStimuliSquare/6u_s_2_2D.png,Stimuli/testStimuliSquare/6u_d_2_2D.png,1,1,,,,,,,,,c,2D
,,,,,,,21,male,A,2020-05-04_22h41.59.244,Remembering_Displays,2020.1.2,Win32,60,9,1,1.306845,1,1,0.51842,0,10,10,2,1,Stimuli/testStimuliSquare/6u_s_2_2D.png,Stimuli/testStimuliSquare/6u_s_2_2D.png,0,9,,,,,,,,,c,2D
,,,,,,,21,male,A,2020-05-04_22h41.59.244,Remembering_Displays,2020.1.2,Win32,60,9,1,0.87982,1,1,0.76099,0,11,11,0,1,Stimuli/testStimuliSquare/6u_s_1_2D.png,Stimuli/testStimuliSquare/6u_s_1_2D.png,0,9,,,,,,,,,c,2D
,,,,,,,21,male,A,2020-05-04_22h41.59.244,Remembering_Displays,2020.1.2,Win32,60,1,1,0.66538,1,1,0.53281,0,12,12,17,1,Stimuli/testStimuliSquare/6u_s_3_s_2D.png,Stimuli/testStimuliSquare/6u_d_3_s_2D.png,1,1,,,,,,,,,s,2D
,,,,,,,21,male,A,2020-05-04_22h41.59.244,Remembering_Displays,2020.1.2,Win32,60,1,1,1.04728,1,1,0.65274,0,13,13,23,1,Stimuli/testStimuliSquare/6u_s_6_s_2D.png,Stimuli/testStimuliSquare/6u_d_6_s_2D.png,1,1,,,,,,,,,s,2D
,,,,,,,21,male,A,2020-05-04_22h41.59.244,Remembering_Displays,2020.1.2,Win32,60,9,1,0.698785,9,1,0.570575,0,14,14,20,1,Stimuli/testStimuliSquare/6u_s_5_s_2D.png,Stimuli/testStimuliSquare/6u_s_5_s_2D.png,0,9,,,,,,,,,s,2D
,,,,,,,21,male,A,2020-05-04_22h41.59.244,Remembering_Displays,2020.1.2,Win32,60,1,0,0.770535,1,1,0.5285,0,15,15,22,1,Stimuli/testStimuliSquare/6u_s_6_s_2D.png,Stimuli/testStimuliSquare/6u_s_6_s_2D.png,0,9,,,,,,,,,s,2D
,,,,,,,21,male,A,2020-05-04_22h41.59.244,Remembering_Displays,2020.1.2,Win32,60,9,1,0.697175,1,1,0.675285,0,16,16,6,1,Stimuli/testStimuliSquare/6u_s_4_2D.png,Stimuli/testStimuliSquare/6u_s_4_2D.png,0,9,,,,,,,,,c,2D
,,,,,,,21,male,A,2020-05-04_22h41.59.244,Remembering_Displays,2020.1.2,Win32,60,9,1,0.96369,9,1,1.11266,0,17,17,12,1,Stimuli/testStimuliSquare/6u_s_1_s_2D.png,Stimuli/testStimuliSquare/6u_s_1_s_2D.png,0,9,,,,,,,,,s,2D
,,,,,,,21,male,A,2020-05-04_22h41.59.244,Remembering_Displays,2020.1.2,Win32,60,9,1,0.6921,1,1,0.56775,0,18,18,14,1,Stimuli/testStimuliSquare/6u_s_2_s_2D.png,Stimuli/testStimuliSquare/6u_s_2_s_2D.png,0,9,,,,,,,,,s,2D
,,,,,,,21,male,A,2020-05-04_22h41.59.244,Remembering_Displays,2020.1.2,Win32,60,9,1,0.777575,9,1,0.45739,0,19,19,18,1,Stimuli/testStimuliSquare/6u_s_4_s_2D.png,Stimuli/testStimuliSquare/6u_s_4_s_2D.png,0,9,,,,,,,,,s,2D
,,,,,,,21,male,A,2020-05-04_22h41.59.244,Remembering_Displays,2020.1.2,Win32,60,1,1,0.62827,9,1,0.59823,0,20,20,1,1,Stimuli/testStimuliSquare/6u_s_1_2D.png,Stimuli/testStimuliSquare/6u_d_1_2D.png,1,1,,,,,,,,,c,2D
,,,,,,,21,male,A,2020-05-04_22h41.59.244,Remembering_Displays,2020.1.2,Win32,60,9,1,0.842635,9,1,0.474155,0,21,21,10,1,Stimuli/testStimuliSquare/6u_s_6_2D.png,Stimuli/testStimuliSquare/6u_s_6_2D.png,0,9,,,,,,,,,c,2D
,,,,,,,21,male,A,2020-05-04_22h41.59.244,Remembering_Displays,2020.1.2,Win32,60,9,0,0.78001,9,1,0.821695,0,22,22,9,1,Stimuli/testStimuliSquare/6u_s_5_2D.png,Stimuli/testStimuliSquare/6u_d_5_2D.png,1,1,,,,,,,,,c,2D
,,,,,,,21,male,A,2020-05-04_22h41.59.244,Remembering_Displays,2020.1.2,Win32,60,1,1,0.735415,9,1,0.432895,0,23,23,13,1,Stimuli/testStimuliSquare/6u_s_1_s_2D.png,Stimuli/testStimuliSquare/6u_d_1_s_2D.png,1,1,,,,,,,,,s,2D
,,,,,,,21,male,A,2020-05-04_22h41.59.244,Remembering_Displays,2020.1.2,Win32,60,,,,,,,,,,,,,,,,0,1,1,1,1,Stimuli/trialListSquares1.xlsx,Instructions/instr_18.png,Progress: 24 of 192 trials completed,,
,,,,,,,21,male,A,2020-05-04_22h41.59.244,Remembering_Displays,2020.1.2,Win32,60,,0,,9,1,1.08624,0,0,0,3,1,Stimuli/practiceStimuliCube/practice4_s.png,Stimuli/practiceStimuliCube/practice4_d.png,1,1,,,,,,,,,,
,,,,,,,21,male,A,2020-05-04_22h41.59.244,Remembering_Displays,2020.1.2,Win32,60,9,1,0.90229,9,1,0.92761,0,1,1,5,1,Stimuli/practiceStimuliCube/practice2_s.png,Stimuli/practiceStimuliCube/practice2_s.png,0,9,,,,,,,,,,
,,,,,,,21,male,A,2020-05-04_22h41.59.244,Remembering_Displays,2020.1.2,Win32,60,9,1,0.769855,9,1,0.373245,0,2,2,2,1,Stimuli/practiceStimuliCube/practice3_s.png,Stimuli/practiceStimuliCube/practice3_s.png,0,9,,,,,,,,,,
,,,,,,,21,male,A,2020-05-04_22h41.59.244,Remembering_Displays,2020.1.2,Win32,60,9,1,0.62985,1,1,0.48651,0,3,3,7,1,Stimuli/practiceStimuliCube/practice4_s.png,Stimuli/practiceStimuliCube/practice4_s.png,0,9,,,,,,,,,,
,,,,,,,21,male,A,2020-05-04_22h41.59.244,Remembering_Displays,2020.1.2,Win32,60,1,1,0.620315,1,1,0.692375,0,4,4,1,1,Stimuli/practiceStimuliCube/practice2_s.png,Stimuli/practiceStimuliCube/practice2_d.png,1,1,,,,,,,,,,
,,,,,,,21,male,A,2020-05-04_22h41.59.244,Remembering_Displays,2020.1.2,Win32,60,9,1,0.692435,9,1,0.718925,0,5,5,0,1,Stimuli/practiceStimuliCube/practice1_s.png,Stimuli/practiceStimuliCube/practice1_s.png,0,9,,,,,,,,,,
,,,,,,,21,male,A,2020-05-04_22h41.59.244,Remembering_Displays,2020.1.2,Win32,60,1,1,0.590025,9,1,0.4263,0,6,6,6,1,Stimuli/practiceStimuliCube/practice3_s.png,Stimuli/practiceStimuliCube/practice3_d.png,1,1,,,,,,,,,,
,,,,,,,21,male,A,2020-05-04_22h41.59.244,Remembering_Displays,2020.1.2,Win32,60,1,1,0.597265,1,1,0.5342,0,7,7,4,1,Stimuli/practiceStimuliCube/practice1_s.png,Stimuli/practiceStimuliCube/practice1_d.png,1,1,,,,,,,,,,
,,,,,,,21,male,A,2020-05-04_22h41.59.244,Remembering_Displays,2020.1.2,Win32,60,,,,,,,,,,,,,,,,0,2,2,2,1,Stimuli/practiceListCubes.xlsx,Instructions/instr_practice_B.png,Practice trials completed,,
,,,,,,,21,male,A,2020-05-04_22h41.59.244,Remembering_Displays,2020.1.2,Win32,60,9,0,1.110485,9,1,0.728925,0,0,0,9,1,Stimuli/testStimuliCube/6u_s_23.png,Stimuli/testStimuliCube/6u_d_23.png,1,1,,,,,,,,,c,3D
,,,,,,,21,male,A,2020-05-04_22h41.59.244,Remembering_Displays,2020.1.2,Win32,60,1,1,0.68507,1,1,0.62131,0,1,1,5,1,Stimuli/testStimuliCube/6u_s_21.png,Stimuli/testStimuliCube/6u_d_21.png,1,1,,,,,,,,,c,3D
,,,,,,,21,male,A,2020-05-04_22h41.59.244,Remembering_Displays,2020.1.2,Win32,60,1,1,0.611535,1,1,0.475835,0,2,2,15,1,Stimuli/testStimuliCube/6u_s_20_s.png,Stimuli/testStimuliCube/6u_d_20_s.png,1,1,,,,,,,,,s,3D
,,,,,,,21,male,A,2020-05-04_22h41.59.244,Remembering_Displays,2020.1.2,Win32,60,9,1,0.74077,1,1,0.48209,0,3,3,18,1,Stimuli/testStimuliCube/6u_s_22_s.png,Stimuli/testStimuliCube/6u_s_22_s.png,0,9,,,,,,,,,s,3D
,,,,,,,21,male,A,2020-05-04_22h41.59.244,Remembering_Displays,2020.1.2,Win32,60,1,1,1.005525,1,1,0.571645,0,4,4,21,1,Stimuli/testStimuliCube/6u_s_23_s.png,Stimuli/testStimuliCube/6u_d_23_s.png,1,1,,,,,,,,,s,3D
,,,,,,,21,male,A,2020-05-04_22h41.59.244,Remembering_Displays,2020.1.2,Win32,60,9,1,0.768915,9,1,0.4531,0,5,5,2,1,Stimuli/testStimuliCube/6u_s_20.png,Stimuli/testStimuliCube/6u_s_20.png,0,9,,,,,,,,,c,3D
,,,,,,,21,male,A,2020-05-04_22h41.59.244,Remembering_Displays,2020.1.2,Win32,60,9,1,0.62369,1,1,0.404675,0,6,6,6,1,Stimuli/testStimuliCube/6u_s_22.png,Stimuli/testStimuliCube/6u_s_22.png,0,9,,,,,,,,,c,3D
,,,,,,,21,male,A,2020-05-04_22h41.59.244,Remembering_Displays,2020.1.2,Win32,60,9,1,0.518905,1,1,0.459005,0,7,7,8,1,Stimuli/testStimuliCube/6u_s_23.png,Stimuli/testStimuliCube/6u_s_23.png,0,9,,,,,,,,,c,3D
,,,,,,,21,male,A,2020-05-04_22h41.59.244,Remembering_Displays,2020.1.2,Win32,60,9,1,0.67547,9,1,0.345785,0,8,8,20,1,Stimuli/testStimuliCube/6u_s_23_s.png,Stimuli/testStimuliCube/6u_s_23_s.png,0,9,,,,,,,,,s,3D
,,,,,,,21,male,A,2020-05-04_22h41.59.244,Remembering_Displays,2020.1.2,Win32,60,1,1,0.654205,9,1,0.61596,0,9,9,13,1,Stimuli/testStimuliCube/6u_s_19_s.png,Stimuli/testStimuliCube/6u_d_19_s.png,1,1,,,,,,,,,s,3D
,,,,,,,21,male,A,2020-05-04_22h41.59.244,Remembering_Displays,2020.1.2,Win32,60,9,1,0.74838,1,1,0.362035,0,10,10,10,1,Stimuli/testStimuliCube/6u_s_24.png,Stimuli/testStimuliCube/6u_s_24.png,0,9,,,,,,,,,c,3D
,,,,,,,21,male,A,2020-05-04_22h41.59.244,Remembering_Displays,2020.1.2,Win32,60,9,1,0.485485,9,1,0.376455,0,11,11,0,1,Stimuli/testStimuliCube/6u_s_19.png,Stimuli/testStimuliCube/6u_s_19.png,0,9,,,,,,,,,c,3D
,,,,,,,21,male,A,2020-05-04_22h41.59.244,Remembering_Displays,2020.1.2,Win32,60,9,1,0.585135,9,1,0.40494,0,12,12,12,1,Stimuli/testStimuliCube/6u_s_19_s.png,Stimuli/testStimuliCube/6u_s_19_s.png,0,9,,,,,,,,,s,3D
,,,,,,,21,male,A,2020-05-04_22h41.59.244,Remembering_Displays,2020.1.2,Win32,60,1,1,0.608035,9,1,0.372135,0,13,13,7,1,Stimuli/testStimuliCube/6u_s_22.png,Stimuli/testStimuliCube/6u_d_22.png,1,1,,,,,,,,,c,3D
,,,,,,,21,male,A,2020-05-04_22h41.59.244,Remembering_Displays,2020.1.2,Win32,60,9,1,0.88351,1,1,0.470955,0,14,14,4,1,Stimuli/testStimuliCube/6u_s_21.png,Stimuli/testStimuliCube/6u_s_21.png,0,9,,,,,,,,,c,3D
,,,,,,,21,male,A,2020-05-04_22h41.59.244,Remembering_Displays,2020.1.2,Win32,60,9,1,0.518215,1,1,0.382225,0,15,15,14,1,Stimuli/testStimuliCube/6u_s_20_s.png,Stimuli/testStimuliCube/6u_s_20_s.png,0,9,,,,,,,,,s,3D
,,,,,,,21,male,A,2020-05-04_22h41.59.244,Remembering_Displays,2020.1.2,Win32,60,9,1,0.652955,9,1,0.62261,0,16,16,16,1,Stimuli/testStimuliCube/6u_s_21_s.png,Stimuli/testStimuliCube/6u_s_21_s.png,0,9,,,,,,,,,s,3D
,,,,,,,21,male,A,2020-05-04_22h41.59.244,Remembering_Displays,2020.1.2,Win32,60,1,1,0.625825,9,1,0.706175,0,17,17,19,1,Stimuli/testStimuliCube/6u_s_22_s.png,Stimuli/testStimuliCube/6u_d_22_s.png,1,1,,,,,,,,,s,3D
,,,,,,,21,male,A,2020-05-04_22h41.59.244,Remembering_Displays,2020.1.2,Win32,60,1,1,0.78368,9,1,0.344505,0,18,18,23,1,Stimuli/testStimuliCube/6u_s_24_s.png,Stimuli/testStimuliCube/6u_d_24_s.png,1,1,,,,,,,,,s,3D
,,,,,,,21,male,A,2020-05-04_22h41.59.244,Remembering_Displays,2020.1.2,Win32,60,1,1,0.59899,1,1,0.440335,0,19,19,3,1,Stimuli/testStimuliCube/6u_s_20.png,Stimuli/testStimuliCube/6u_d_20.png,1,1,,,,,,,,,c,3D
,,,,,,,21,male,A,2020-05-04_22h41.59.244,Remembering_Displays,2020.1.2,Win32,60,9,0,0.61148,1,1,0.345925,0,20,20,17,1,Stimuli/testStimuliCube/6u_s_21_s.png,Stimuli/testStimuliCube/6u_d_21_s.png,1,1,,,,,,,,,s,3D
,,,,,,,21,male,A,2020-05-04_22h41.59.244,Remembering_Displays,2020.1.2,Win32,60,1,1,0.678895,1,1,0.383135,0,21,21,11,1,Stimuli/testStimuliCube/6u_s_24.png,Stimuli/testStimuliCube/6u_d_24.png,1,1,,,,,,,,,c,3D
,,,,,,,21,male,A,2020-05-04_22h41.59.244,Remembering_Displays,2020.1.2,Win32,60,9,1,0.631025,9,1,0.29682,0,22,22,22,1,Stimuli/testStimuliCube/6u_s_24_s.png,Stimuli/testStimuliCube/6u_s_24_s.png,0,9,,,,,,,,,s,3D
,,,,,,,21,male,A,2020-05-04_22h41.59.244,Remembering_Displays,2020.1.2,Win32,60,1,1,0.552785,1,1,0.70415,0,23,23,1,1,Stimuli/testStimuliCube/6u_s_19.png,Stimuli/testStimuliCube/6u_d_19.png,1,1,,,,,,,,,c,3D
,,,,,,,21,male,A,2020-05-04_22h41.59.244,Remembering_Displays,2020.1.2,Win32,60,,,,,,,,,,,,,,,,0,3,3,3,1,Stimuli/trialListCubes4.xlsx,Instructions/instr_19.png,Progress: 48 of 192 trials completed,,
,,,,,,,21,male,A,2020-05-04_22h41.59.244,Remembering_Displays,2020.1.2,Win32,60,9,1,0.667955,9,1,0.47606,0,0,0,22,1,Stimuli/testStimuliSquare/6u_s_12_s_2D.png,Stimuli/testStimuliSquare/6u_s_12_s_2D.png,0,9,,,,,,,,,s,2D
,,,,,,,21,male,A,2020-05-04_22h41.59.244,Remembering_Displays,2020.1.2,Win32,60,1,1,0.722705,9,1,0.77123,0,1,1,11,1,Stimuli/testStimuliSquare/6u_s_12_2D.png,Stimuli/testStimuliSquare/6u_d_12_2D.png,1,1,,,,,,,,,c,2D
,,,,,,,21,male,A,2020-05-04_22h41.59.244,Remembering_Displays,2020.1.2,Win32,60,1,1,0.552825,1,1,0.435815,0,2,2,9,1,Stimuli/testStimuliSquare/6u_s_11_2D.png,Stimuli/testStimuliSquare/6u_d_11_2D.png,1,1,,,,,,,,,c,2D
,,,,,,,21,male,A,2020-05-04_22h41.59.244,Remembering_Displays,2020.1.2,Win32,60,1,1,0.57133,9,1,0.47664,0,3,3,3,1,Stimuli/testStimuliSquare/6u_s_8_2D.png,Stimuli/testStimuliSquare/6u_d_8_2D.png,1,1,,,,,,,,,c,2D
,,,,,,,21,male,A,2020-05-04_22h41.59.244,Remembering_Displays,2020.1.2,Win32,60,9,0,0.802225,1,1,0.510555,0,4,4,5,1,Stimuli/testStimuliSquare/6u_s_9_2D.png,Stimuli/testStimuliSquare/6u_d_9_2D.png,1,1,,,,,,,,,c,2D
,,,,,,,21,male,A,2020-05-04_22h41.59.244,Remembering_Displays,2020.1.2,Win32,60,9,1,0.593955,1,1,0.416395,0,5,5,4,1,Stimuli/testStimuliSquare/6u_s_9_2D.png,Stimuli/testStimuliSquare/6u_s_9_2D.png,0,9,,,,,,,,,c,2D
,,,,,,,21,male,A,2020-05-04_22h41.59.244,Remembering_Displays,2020.1.2,Win32,60,9,1,0.55002,1,1,0.357375,0,6,6,20,1,Stimuli/testStimuliSquare/6u_s_11_s_2D.png,Stimuli/testStimuliSquare/6u_s_11_s_2D.png,0,9,,,,,,,,,s,2D
,,,,,,,21,male,A,2020-05-04_22h41.59.244,Remembering_Displays,2020.1.2,Win32,60,9,1,0.56516,1,1,0.50202,0,7,7,12,1,Stimuli/testStimuliSquare/6u_s_7_s_2D.png,Stimuli/testStimuliSquare/6u_s_7_s_2D.png,0,9,,,,,,,,,s,2D
,,,,,,,21,male,A,2020-05-04_22h41.59.244,Remembering_Displays,2020.1.2,Win32,60,9,1,0.66423,9,1,0.558725,0,8,8,16,1,Stimuli/testStimuliSquare/6u_s_9_s_2D.png,Stimuli/testStimuliSquare/6u_s_9_s_2D.png,0,9,,,,,,,,,s,2D
,,,,,,,21,male,A,2020-05-04_22h41.59.244,Remembering_Displays,2020.1.2,Win32,60,9,1,0.578655,9,1,0.3777,0,9,9,6,1,Stimuli/testStimuliSquare/6u_s_10_2D.png,Stimuli/testStimuliSquare/6u_s_10_2D.png,0,9,,,,,,,,,c,2D
,,,,,,,21,male,A,2020-05-04_22h41.59.244,Remembering_Displays,2020.1.2,Win32,60,9,1,0.668635,1,1,0.71827,0,10,10,2,1,Stimuli/testStimuliSquare/6u_s_8_2D.png,Stimuli/testStimuliSquare/6u_s_8_2D.png,0,9,,,,,,,,,c,2D
,,,,,,,21,male,A,2020-05-04_22h41.59.244,Remembering_Displays,2020.1.2,Win32,60,9,1,0.85458,9,1,0.61548,0,11,11,18,1,Stimuli/testStimuliSquare/6u_s_10_s_2D.png,Stimuli/testStimuliSquare/6u_s_10_s_2D.png,0,9,,,,,,,,,s,2D
,,,,,,,21,male,A,2020-05-04_22h41.59.244,Remembering_Displays,2020.1.2,Win32,60,1,1,0.593525,1,1,0.448365,0,12,12,1,1,Stimuli/testStimuliSquare/6u_s_7_2D.png,Stimuli/testStimuliSquare/6u_d_7_2D.png,1,1,,,,,,,,,c,2D
,,,,,,,21,male,A,2020-05-04_22h41.59.244,Remembering_Displays,2020.1.2,Win32,60,9,1,0.574335,1,1,0.395585,0,13,13,10,1,Stimuli/testStimuliSquare/6u_s_12_2D.png,Stimuli/testStimuliSquare/6u_s_12_2D.png,0,9,,,,,,,,,c,2D
,,,,,,,21,male,A,2020-05-04_22h41.59.244,Remembering_Displays,2020.1.2,Win32,60,1,0,0.547275,9,1,1.15043,0,14,14,0,1,Stimuli/testStimuliSquare/6u_s_7_2D.png,Stimuli/testStimuliSquare/6u_s_7_2D.png,0,9,,,,,,,,,c,2D
,,,,,,,21,male,A,2020-05-04_22h41.59.244,Remembering_Displays,2020.1.2,Win32,60,1,1,0.54029,1,1,0.374665,0,15,15,21,1,Stimuli/testStimuliSquare/6u_s_11_s_2D.png,Stimuli/testStimuliSquare/6u_d_11_s_2D.png,1,1,,,,,,,,,s,2D
,,,,,,,21,male,A,2020-05-04_22h41.59.244,Remembering_Displays,2020.1.2,Win32,60,9,1,0.639325,9,1,0.773435,0,16,16,14,1,Stimuli/testStimuliSquare/6u_s_8_s_2D.png,Stimuli/testStimuliSquare/6u_s_8_s_2D.png,0,9,,,,,,,,,s,2D
,,,,,,,21,male,A,2020-05-04_22h41.59.244,Remembering_Displays,2020.1.2,Win32,60,1,1,0.62682,1,1,0.365125,0,17,17,17,1,Stimuli/testStimuliSquare/6u_s_9_s_2D.png,Stimuli/testStimuliSquare/6u_d_9_s_2D.png,1,1,,,,,,,,,s,2D
,,,,,,,21,male,A,2020-05-04_22h41.59.244,Remembering_Displays,2020.1.2,Win32,60,1,1,0.988065,1,1,0.33421,0,18,18,15,1,Stimuli/testStimuliSquare/6u_s_8_s_2D.png,Stimuli/testStimuliSquare/6u_d_8_s_2D.png,1,1,,,,,,,,,s,2D
,,,,,,,21,male,A,2020-05-04_22h41.59.244,Remembering_Displays,2020.1.2,Win32,60,1,1,0.638455,9,1,0.4137,0,19,19,23,1,Stimuli/testStimuliSquare/6u_s_12_s_2D.png,Stimuli/testStimuliSquare/6u_d_12_s_2D.png,1,1,,,,,,,,,s,2D
,,,,,,,21,male,A,2020-05-04_22h41.59.244,Remembering_Displays,2020.1.2,Win32,60,1,1,0.562905,9,1,0.73239,0,20,20,13,1,Stimuli/testStimuliSquare/6u_s_7_s_2D.png,Stimuli/testStimuliSquare/6u_d_7_s_2D.png,1,1,,,,,,,,,s,2D
,,,,,,,21,male,A,2020-05-04_22h41.59.244,Remembering_Displays,2020.1.2,Win32,60,1,1,0.559765,9,1,0.6984,0,21,21,19,1,Stimuli/testStimuliSquare/6u_s_10_s_2D.png,Stimuli/testStimuliSquare/6u_d_10_s_2D.png,1,1,,,,,,,,,s,2D
,,,,,,,21,male,A,2020-05-04_22h41.59.244,Remembering_Displays,2020.1.2,Win32,60,1,1,0.645105,1,1,0.54645,0,22,22,7,1,Stimuli/testStimuliSquare/6u_s_10_2D.png,Stimuli/testStimuliSquare/6u_d_10_2D.png,1,1,,,,,,,,,c,2D
,,,,,,,21,male,A,2020-05-04_22h41.59.244,Remembering_Displays,2020.1.2,Win32,60,9,1,0.701165,9,1,0.660545,0,23,23,8,1,Stimuli/testStimuliSquare/6u_s_11_2D.png,Stimuli/testStimuliSquare/6u_s_11_2D.png,0,9,,,,,,,,,c,2D
,,,,,,,21,male,A,2020-05-04_22h41.59.244,Remembering_Displays,2020.1.2,Win32,60,,,,,,,,,,,,,,,,0,4,4,4,1,Stimuli/trialListSquares2.xlsx,Instructions/instr_18.png,Progress: 72 of 192 trials completed,,
,,,,,,,21,male,A,2020-05-04_22h41.59.244,Remembering_Displays,2020.1.2,Win32,60,9,1,0.748195,9,1,0.45109,0,0,0,4,1,Stimuli/testStimuliCube/6u_s_15.png,Stimuli/testStimuliCube/6u_s_15.png,0,9,,,,,,,,,c,3D
,,,,,,,21,male,A,2020-05-04_22h41.59.244,Remembering_Displays,2020.1.2,Win32,60,9,1,0.593675,9,1,0.33299,0,1,1,14,1,Stimuli/testStimuliCube/6u_s_14_s.png,Stimuli/testStimuliCube/6u_s_14_s.png,0,9,,,,,,,,,s,3D
,,,,,,,21,male,A,2020-05-04_22h41.59.244,Remembering_Displays,2020.1.2,Win32,60,9,1,0.65165,1,1,0.387905,0,2,2,18,1,Stimuli/testStimuliCube/6u_s_16_s.png,Stimuli/testStimuliCube/6u_s_16_s.png,0,9,,,,,,,,,s,3D
,,,,,,,21,male,A,2020-05-04_22h41.59.244,Remembering_Displays,2020.1.2,Win32,60,1,1,0.557915,9,1,0.77343,0,3,3,3,1,Stimuli/testStimuliCube/6u_s_14.png,Stimuli/testStimuliCube/6u_d_14.png,1,1,,,,,,,,,c,3D
,,,,,,,21,male,A,2020-05-04_22h41.59.244,Remembering_Displays,2020.1.2,Win32,60,9,1,0.602665,9,1,0.4151,0,4,4,20,1,Stimuli/testStimuliCube/6u_s_17_s.png,Stimuli/testStimuliCube/6u_s_17_s.png,0,9,,,,,,,,,s,3D
,,,,,,,21,male,A,2020-05-04_22h41.59.244,Remembering_Displays,2020.1.2,Win32,60,9,1,0.64736,9,1,0.436365,0,5,5,12,1,Stimuli/testStimuliCube/6u_s_13_s.png,Stimuli/testStimuliCube/6u_s_13_s.png,0,9,,,,,,,,,s,3D
,,,,,,,21,male,A,2020-05-04_22h41.59.244,Remembering_Displays,2020.1.2,Win32,60,9,1,1.045055,1,1,0.410695,0,6,6,6,1,Stimuli/testStimuliCube/6u_s_16.png,Stimuli/testStimuliCube/6u_s_16.png,0,9,,,,,,,,,c,3D
,,,,,,,21,male,A,2020-05-04_22h41.59.244,Remembering_Displays,2020.1.2,Win32,60,1,1,0.59985,9,1,0.69469,0,7,7,17,1,Stimuli/testStimuliCube/6u_s_15_s.png,Stimuli/testStimuliCube/6u_d_15_s.png,1,1,,,,,,,,,s,3D
,,,,,,,21,male,A,2020-05-04_22h41.59.244,Remembering_Displays,2020.1.2,Win32,60,1,1,0.556725,1,1,0.683565,0,8,8,1,1,Stimuli/testStimuliCube/6u_s_13.png,Stimuli/testStimuliCube/6u_d_13.png,1,1,,,,,,,,,c,3D
,,,,,,,21,male,A,2020-05-04_22h41.59.244,Remembering_Displays,2020.1.2,Win32,60,1,1,0.6015,1,1,0.38698,0,9,9,9,1,Stimuli/testStimuliCube/6u_s_17.png,Stimuli/testStimuliCube/6u_d_17.png,1,1,,,,,,,,,c,3D
,,,,,,,21,male,A,2020-05-04_22h41.59.244,Remembering_Displays,2020.1.2,Win32,60,1,1,0.523875,9,1,0.635895,0,10,10,5,1,Stimuli/testStimuliCube/6u_s_15.png,Stimuli/testStimuliCube/6u_d_15.png,1,1,,,,,,,,,c,3D
,,,,,,,21,male,A,2020-05-04_22h41.59.244,Remembering_Displays,2020.1.2,Win32,60,1,1,0.65653,9,1,0.62522,0,11,11,11,1,Stimuli/testStimuliCube/6u_s_18.png,Stimuli/testStimuliCube/6u_d_18.png,1,1,,,,,,,,,c,3D
,,,,,,,21,male,A,2020-05-04_22h41.59.244,Remembering_Displays,2020.1.2,Win32,60,9,0,0.68205,9,1,0.59761,0,12,12,23,1,Stimuli/testStimuliCube/6u_s_18_s.png,Stimuli/testStimuliCube/6u_d_18_s.png,1,1,,,,,,,,,s,3D
,,,,,,,21,male,A,2020-05-04_22h41.59.244,Remembering_Displays,2020.1.2,Win32,60,1,1,0.557335,9,1,0.400975,0,13,13,13,1,Stimuli/testStimuliCube/6u_s_13_s.png,Stimuli/testStimuliCube/6u_d_13_s.png,1,1,,,,,,,,,s,3D
,,,,,,,21,male,A,2020-05-04_22h41.59.244,Remembering_Displays,2020.1.2,Win32,60,9,1,0.60138,1,1,0.513645,0,14,14,10,1,Stimuli/testStimuliCube/6u_s_18.png,Stimuli/testStimuliCube/6u_s_18.png,0,9,,,,,,,,,c,3D
,,,,,,,21,male,A,2020-05-04_22h41.59.244,Remembering_Displays,2020.1.2,Win32,60,1,1,0.518545,9,1,0.3218,0,15,15,7,1,Stimuli/testStimuliCube/6u_s_16.png,Stimuli/testStimuliCube/6u_d_16.png,1,1,,,,,,,,,c,3D
,,,,,,,21,male,A,2020-05-04_22h41.59.244,Remembering_Displays,2020.1.2,Win32,60,9,1,0.78649,9,1,0.926225,0,16,16,8,1,Stimuli/testStimuliCube/6u_s_17.png,Stimuli/testStimuliCube/6u_s_17.png,0,9,,,,,,,,,c,3D
,,,,,,,21,male,A,2020-05-04_22h41.59.244,Remembering_Displays,2020.1.2,Win32,60,9,1,0.466935,9,1,1.046885,0,17,17,22,1,Stimuli/testStimuliCube/6u_s_18_s.png,Stimuli/testStimuliCube/6u_s_18_s.png,0,9,,,,,,,,,s,3D
,,,,,,,21,male,A,2020-05-04_22h41.59.244,Remembering_Displays,2020.1.2,Win32,60,1,1,0.636195,9,1,0.419385,0,18,18,21,1,Stimuli/testStimuliCube/6u_s_17_s.png,Stimuli/testStimuliCube/6u_d_17_s.png,1,1,,,,,,,,,s,3D
,,,,,,,21,male,A,2020-05-04_22h41.59.244,Remembering_Displays,2020.1.2,Win32,60,9,1,0.644255,1,1,0.451975,0,19,19,0,1,Stimuli/testStimuliCube/6u_s_13.png,Stimuli/testStimuliCube/6u_s_13.png,0,9,,,,,,,,,c,3D
,,,,,,,21,male,A,2020-05-04_22h41.59.244,Remembering_Displays,2020.1.2,Win32,60,9,1,0.81994,1,1,0.55608,0,20,20,2,1,Stimuli/testStimuliCube/6u_s_14.png,Stimuli/testStimuliCube/6u_s_14.png,0,9,,,,,,,,,c,3D
,,,,,,,21,male,A,2020-05-04_22h41.59.244,Remembering_Displays,2020.1.2,Win32,60,1,1,0.52416,9,1,0.638715,0,21,21,19,1,Stimuli/testStimuliCube/6u_s_16_s.png,Stimuli/testStimuliCube/6u_d_16_s.png,1,1,,,,,,,,,s,3D
,,,,,,,21,male,A,2020-05-04_22h41.59.244,Remembering_Displays,2020.1.2,Win32,60,9,1,0.901245,1,1,0.45702,0,22,22,16,1,Stimuli/testStimuliCube/6u_s_15_s.png,Stimuli/testStimuliCube/6u_s_15_s.png,0,9,,,,,,,,,s,3D
,,,,,,,21,male,A,2020-05-04_22h41.59.244,Remembering_Displays,2020.1.2,Win32,60,1,1,0.699255,9,1,0.40285,0,23,23,15,1,Stimuli/testStimuliCube/6u_s_14_s.png,Stimuli/testStimuliCube/6u_d_14_s.png,1,1,,,,,,,,,s,3D
,,,,,,,21,male,A,2020-05-04_22h41.59.244,Remembering_Displays,2020.1.2,Win32,60,,,,,,,,,,,,,,,,0,5,5,5,1,Stimuli/trialListCubes3.xlsx,Instructions/instr_19.png,Progress: 96 of 192 trials completed,,
,,,,,,,21,male,A,2020-05-04_22h41.59.244,Remembering_Displays,2020.1.2,Win32,60,9,1,0.69052,1,1,0.549575,0,0,0,6,1,Stimuli/testStimuliSquare/6u_s_16_2D.png,Stimuli/testStimuliSquare/6u_s_16_2D.png,0,9,,,,,,,,,c,2D
,,,,,,,21,male,A,2020-05-04_22h41.59.244,Remembering_Displays,2020.1.2,Win32,60,1,1,0.585135,1,1,0.31271,0,1,1,5,1,Stimuli/testStimuliSquare/6u_s_15_2D.png,Stimuli/testStimuliSquare/6u_d_15_2D.png,1,1,,,,,,,,,c,2D
,,,,,,,21,male,A,2020-05-04_22h41.59.244,Remembering_Displays,2020.1.2,Win32,60,1,1,0.59515,1,1,0.3614,0,2,2,19,1,Stimuli/testStimuliSquare/6u_s_16_s_2D.png,Stimuli/testStimuliSquare/6u_d_16_s_2D.png,1,1,,,,,,,,,s,2D
,,,,,,,21,male,A,2020-05-04_22h41.59.244,Remembering_Displays,2020.1.2,Win32,60,9,1,0.71748,9,1,0.358845,0,3,3,14,1,Stimuli/testStimuliSquare/6u_s_14_s_2D.png,Stimuli/testStimuliSquare/6u_s_14_s_2D.png,0,9,,,,,,,,,s,2D
,,,,,,,21,male,A,2020-05-04_22h41.59.244,Remembering_Displays,2020.1.2,Win32,60,9,1,0.660005,9,1,1.07701,0,4,4,18,1,Stimuli/testStimuliSquare/6u_s_16_s_2D.png,Stimuli/testStimuliSquare/6u_s_16_s_2D.png,0,9,,,,,,,,,s,2D
,,,,,,,21,male,A,2020-05-04_22h41.59.244,Remembering_Displays,2020.1.2,Win32,60,9,1,0.422575,9,1,0.345015,0,5,5,12,1,Stimuli/testStimuliSquare/6u_s_13_s_2D.png,Stimuli/testStimuliSquare/6u_s_13_s_2D.png,0,9,,,,,,,,,s,2D
,,,,,,,21,male,A,2020-05-04_22h41.59.244,Remembering_Displays,2020.1.2,Win32,60,9,1,0.462715,9,1,0.66826,0,6,6,20,1,Stimuli/testStimuliSquare/6u_s_17_s_2D.png,Stimuli/testStimuliSquare/6u_s_17_s_2D.png,0,9,,,,,,,,,s,2D
,,,,,,,21,male,A,2020-05-04_22h41.59.244,Remembering_Displays,2020.1.2,Win32,60,1,1,0.578765,9,1,1.45615,0,7,7,13,1,Stimuli/testStimuliSquare/6u_s_13_s_2D.png,Stimuli/testStimuliSquare/6u_d_13_s_2D.png,1,1,,,,,,,,,s,2D
,,,,,,,21,male,A,2020-05-04_22h41.59.244,Remembering_Displays,2020.1.2,Win32,60,9,1,0.61237,9,1,0.279055,0,8,8,2,1,Stimuli/testStimuliSquare/6u_s_14_2D.png,Stimuli/testStimuliSquare/6u_s_14_2D.png,0,9,,,,,,,,,c,2D
,,,,,,,21,male,A,2020-05-04_22h41.59.244,Remembering_Displays,2020.1.2,Win32,60,9,1,0.615475,9,0,0.34375,0,9,9,0,1,Stimuli/testStimuliSquare/6u_s_13_2D.png,Stimuli/testStimuliSquare/6u_s_13_2D.png,0,9,,,,,,,,,c,2D
,,,,,,,21,male,A,2020-05-04_22h41.59.244,Remembering_Displays,2020.1.2,Win32,60,9,1,0.52429,1,1,1.06946,0,10,10,22,1,Stimuli/testStimuliSquare/6u_s_18_s_2D.png,Stimuli/testStimuliSquare/6u_s_18_s_2D.png,0,9,,,,,,,,,s,2D
,,,,,,,21,male,A,2020-05-04_22h41.59.244,Remembering_Displays,2020.1.2,Win32,60,1,1,0.57205,1,1,0.42314,0,11,11,21,1,Stimuli/testStimuliSquare/6u_s_17_s_2D.png,Stimuli/testStimuliSquare/6u_d_17_s_2D.png,1,1,,,,,,,,,s,2D
,,,,,,,21,male,A,2020-05-04_22h41.59.244,Remembering_Displays,2020.1.2,Win32,60,9,1,0.560785,9,1,0.41473,0,12,12,8,1,Stimuli/testStimuliSquare/6u_s_17_2D.png,Stimuli/testStimuliSquare/6u_s_17_2D.png,0,9,,,,,,,,,c,2D
,,,,,,,21,male,A,2020-05-04_22h41.59.244,Remembering_Displays,2020.1.2,Win32,60,1,1,0.49942,9,1,0.429365,0,13,13,9,1,Stimuli/testStimuliSquare/6u_s_17_2D.png,Stimuli/testStimuliSquare/6u_d_17_2D.png,1,1,,,,,,,,,c,2D
,,,,,,,21,male,A,2020-05-04_22h41.59.244,Remembering_Displays,2020.1.2,Win32,60,9,0,0.706135,9,1,0.52345,0,14,14,11,1,Stimuli/testStimuliSquare/6u_s_18_2D.png,Stimuli/testStimuliSquare/6u_d_18_2D.png,1,1,,,,,,,,,c,2D
,,,,,,,21,male,A,2020-05-04_22h41.59.244,Remembering_Displays,2020.1.2,Win32,60,1,1,0.584655,9,1,0.433065,0,15,15,3,1,Stimuli/testStimuliSquare/6u_s_14_2D.png,Stimuli/testStimuliSquare/6u_d_14_2D.png,1,1,,,,,,,,,c,2D
,,,,,,,21,male,A,2020-05-04_22h41.59.244,Remembering_Displays,2020.1.2,Win32,60,1,1,0.503375,9,0,0.390735,0,16,16,7,1,Stimuli/testStimuliSquare/6u_s_16_2D.png,Stimuli/testStimuliSquare/6u_d_16_2D.png,1,1,,,,,,,,,c,2D
,,,,,,,21,male,A,2020-05-04_22h41.59.244,Remembering_Displays,2020.1.2,Win32,60,1,1,0.51717,1,1,0.442735,0,17,17,17,1,Stimuli/testStimuliSquare/6u_s_15_s_2D.png,Stimuli/testStimuliSquare/6u_d_15_s_2D.png,1,1,,,,,,,,,s,2D
,,,,,,,21,male,A,2020-05-04_22h41.59.244,Remembering_Displays,2020.1.2,Win32,60,9,1,0.551825,9,1,0.416305,0,18,18,16,1,Stimuli/testStimuliSquare/6u_s_15_s_2D.png,Stimuli/testStimuliSquare/6u_s_15_s_2D.png,0,9,,,,,,,,,s,2D
,,,,,,,21,male,A,2020-05-04_22h41.59.244,Remembering_Displays,2020.1.2,Win32,60,1,1,0.50966,1,1,0.36985,0,19,19,15,1,Stimuli/testStimuliSquare/6u_s_14_s_2D.png,Stimuli/testStimuliSquare/6u_d_14_s_2D.png,1,1,,,,,,,,,s,2D
,,,,,,,21,male,A,2020-05-04_22h41.59.244,Remembering_Displays,2020.1.2,Win32,60,9,1,0.49496,9,0,0.39599,0,20,20,4,1,Stimuli/testStimuliSquare/6u_s_15_2D.png,Stimuli/testStimuliSquare/6u_s_15_2D.png,0,9,,,,,,,,,c,2D
,,,,,,,21,male,A,2020-05-04_22h41.59.244,Remembering_Displays,2020.1.2,Win32,60,9,1,0.562615,9,1,0.444155,0,21,21,10,1,Stimuli/testStimuliSquare/6u_s_18_2D.png,Stimuli/testStimuliSquare/6u_s_18_2D.png,0,9,,,,,,,,,c,2D
,,,,,,,21,male,A,2020-05-04_22h41.59.244,Remembering_Displays,2020.1.2,Win32,60,1,1,0.8015,1,1,0.453475,0,22,22,23,1,Stimuli/testStimuliSquare/6u_s_18_s_2D.png,Stimuli/testStimuliSquare/6u_d_18_s_2D.png,1,1,,,,,,,,,s,2D
,,,,,,,21,male,A,2020-05-04_22h41.59.244,Remembering_Displays,2020.1.2,Win32,60,1,1,0.76174,9,1,0.65128,0,23,23,1,1,Stimuli/testStimuliSquare/6u_s_13_2D.png,Stimuli/testStimuliSquare/6u_d_13_2D.png,1,1,,,,,,,,,c,2D
,,,,,,,21,male,A,2020-05-04_22h41.59.244,Remembering_Displays,2020.1.2,Win32,60,,,,,,,,,,,,,,,,0,6,6,6,1,Stimuli/trialListSquares3.xlsx,Instructions/instr_18.png,Progress: 120 of 192 trials completed,,
,,,,,,,21,male,A,2020-05-04_22h41.59.244,Remembering_Displays,2020.1.2,Win32,60,1,1,0.552225,1,1,3.747945,0,0,0,13,1,Stimuli/testStimuliCube/6u_s_7_s.png,Stimuli/testStimuliCube/6u_d_7_s.png,1,1,,,,,,,,,s,3D
,,,,,,,21,male,A,2020-05-04_22h41.59.244,Remembering_Displays,2020.1.2,Win32,60,1,1,0.55873,9,1,0.53161,0,1,1,5,1,Stimuli/testStimuliCube/6u_s_9.png,Stimuli/testStimuliCube/6u_d_9.png,1,1,,,,,,,,,c,3D
,,,,,,,21,male,A,2020-05-04_22h41.59.244,Remembering_Displays,2020.1.2,Win32,60,1,1,0.653195,9,1,0.5631,0,2,2,23,1,Stimuli/testStimuliCube/6u_s_12_s.png,Stimuli/testStimuliCube/6u_d_12_s.png,1,1,,,,,,,,,s,3D
,,,,,,,21,male,A,2020-05-04_22h41.59.244,Remembering_Displays,2020.1.2,Win32,60,9,1,0.854945,1,1,0.42184,0,3,3,12,1,Stimuli/testStimuliCube/6u_s_7_s.png,Stimuli/testStimuliCube/6u_s_7_s.png,0,9,,,,,,,,,s,3D
,,,,,,,21,male,A,2020-05-04_22h41.59.244,Remembering_Displays,2020.1.2,Win32,60,9,1,0.68564,1,1,0.26908,0,4,4,8,1,Stimuli/testStimuliCube/6u_s_11.png,Stimuli/testStimuliCube/6u_s_11.png,0,9,,,,,,,,,c,3D
,,,,,,,21,male,A,2020-05-04_22h41.59.244,Remembering_Displays,2020.1.2,Win32,60,1,1,0.60553,9,1,0.45289,0,5,5,11,1,Stimuli/testStimuliCube/6u_s_12.png,Stimuli/testStimuliCube/6u_d_12.png,1,1,,,,,,,,,c,3D
,,,,,,,21,male,A,2020-05-04_22h41.59.244,Remembering_Displays,2020.1.2,Win32,60,1,1,0.58388,9,1,0.747875,0,6,6,15,1,Stimuli/testStimuliCube/6u_s_8_s.png,Stimuli/testStimuliCube/6u_d_8_s.png,1,1,,,,,,,,,s,3D
,,,,,,,21,male,A,2020-05-04_22h41.59.244,Remembering_Displays,2020.1.2,Win32,60,1,1,0.5707,1,1,0.536395,0,7,7,21,1,Stimuli/testStimuliCube/6u_s_11_s.png,Stimuli/testStimuliCube/6u_d_11_s.png,1,1,,,,,,,,,s,3D
,,,,,,,21,male,A,2020-05-04_22h41.59.244,Remembering_Displays,2020.1.2,Win32,60,9,1,0.660385,1,1,0.49657,0,8,8,14,1,Stimuli/testStimuliCube/6u_s_8_s.png,Stimuli/testStimuliCube/6u_s_8_s.png,0,9,,,,,,,,,s,3D
,,,,,,,21,male,A,2020-05-04_22h41.59.244,Remembering_Displays,2020.1.2,Win32,60,1,1,0.617675,1,1,0.41807,0,9,9,3,1,Stimuli/testStimuliCube/6u_s_8.png,Stimuli/testStimuliCube/6u_d_8.png,1,1,,,,,,,,,c,3D
,,,,,,,21,male,A,2020-05-04_22h41.59.244,Remembering_Displays,2020.1.2,Win32,60,1,1,0.48619,9,1,0.607765,0,10,10,19,1,Stimuli/testStimuliCube/6u_s_10_s.png,Stimuli/testStimuliCube/6u_d_10_s.png,1,1,,,,,,,,,s,3D
,,,,,,,21,male,A,2020-05-04_22h41.59.244,Remembering_Displays,2020.1.2,Win32,60,1,1,0.534285,1,1,0.369945,0,11,11,1,1,Stimuli/testStimuliCube/6u_s_7.png,Stimuli/testStimuliCube/6u_d_7.png,1,1,,,,,,,,,c,3D
,,,,,,,21,male,A,2020-05-04_22h41.59.244,Remembering_Displays,2020.1.2,Win32,60,1,1,0.53419,9,1,0.408335,0,12,12,7,1,Stimuli/testStimuliCube/6u_s_10.png,Stimuli/testStimuliCube/6u_d_10.png,1,1,,,,,,,,,c,3D
,,,,,,,21,male,A,2020-05-04_22h41.59.244,Remembering_Displays,2020.1.2,Win32,60,9,1,0.771665,1,1,0.66298,0,13,13,10,1,Stimuli/testStimuliCube/6u_s_12.png,Stimuli/testStimuliCube/6u_s_12.png,0,9,,,,,,,,,c,3D
,,,,,,,21,male,A,2020-05-04_22h41.59.244,Remembering_Displays,2020.1.2,Win32,60,9,1,0.59641,1,1,0.35181,0,14,14,6,1,Stimuli/testStimuliCube/6u_s_10.png,Stimuli/testStimuliCube/6u_s_10.png,0,9,,,,,,,,,c,3D
,,,,,,,21,male,A,2020-05-04_22h41.59.244,Remembering_Displays,2020.1.2,Win32,60,9,1,0.54159,1,1,0.42117,0,15,15,22,1,Stimuli/testStimuliCube/6u_s_12_s.png,Stimuli/testStimuliCube/6u_s_12_s.png,0,9,,,,,,,,,s,3D
,,,,,,,21,male,A,2020-05-04_22h41.59.244,Remembering_Displays,2020.1.2,Win32,60,9,1,0.736455,9,1,0.514685,0,16,16,2,1,Stimuli/testStimuliCube/6u_s_8.png,Stimuli/testStimuliCube/6u_s_8.png,0,9,,,,,,,,,c,3D
,,,,,,,21,male,A,2020-05-04_22h41.59.244,Remembering_Displays,2020.1.2,Win32,60,1,1,0.64572,1,1,0.334815,0,17,17,17,1,Stimuli/testStimuliCube/6u_s_9_s.png,Stimuli/testStimuliCube/6u_d_9_s.png,1,1,,,,,,,,,s,3D
,,,,,,,21,male,A,2020-05-04_22h41.59.244,Remembering_Displays,2020.1.2,Win32,60,9,1,0.53642,1,1,0.424035,0,18,18,18,1,Stimuli/testStimuliCube/6u_s_10_s.png,Stimuli/testStimuliCube/6u_s_10_s.png,0,9,,,,,,,,,s,3D
,,,,,,,21,male,A,2020-05-04_22h41.59.244,Remembering_Displays,2020.1.2,Win32,60,1,0,0.57544,1,1,0.555345,0,19,19,0,1,Stimuli/testStimuliCube/6u_s_7.png,Stimuli/testStimuliCube/6u_s_7.png,0,9,,,,,,,,,c,3D
,,,,,,,21,male,A,2020-05-04_22h41.59.244,Remembering_Displays,2020.1.2,Win32,60,9,1,0.71633,1,1,0.36906,0,20,20,4,1,Stimuli/testStimuliCube/6u_s_9.png,Stimuli/testStimuliCube/6u_s_9.png,0,9,,,,,,,,,c,3D
,,,,,,,21,male,A,2020-05-04_22h41.59.244,Remembering_Displays,2020.1.2,Win32,60,1,1,0.75956,9,1,0.5953,0,21,21,9,1,Stimuli/testStimuliCube/6u_s_11.png,Stimuli/testStimuliCube/6u_d_11.png,1,1,,,,,,,,,c,3D
,,,,,,,21,male,A,2020-05-04_22h41.59.244,Remembering_Displays,2020.1.2,Win32,60,9,1,0.607015,9,1,0.73435,0,22,22,20,1,Stimuli/testStimuliCube/6u_s_11_s.png,Stimuli/testStimuliCube/6u_s_11_s.png,0,9,,,,,,,,,s,3D
,,,,,,,21,male,A,2020-05-04_22h41.59.244,Remembering_Displays,2020.1.2,Win32,60,9,1,0.440345,1,1,0.507115,0,23,23,16,1,Stimuli/testStimuliCube/6u_s_9_s.png,Stimuli/testStimuliCube/6u_s_9_s.png,0,9,,,,,,,,,s,3D
,,,,,,,21,male,A,2020-05-04_22h41.59.244,Remembering_Displays,2020.1.2,Win32,60,,,,,,,,,,,,,,,,0,7,7,7,1,Stimuli/trialListCubes2.xlsx,Instructions/instr_19.png,Progress: 144 of 192 trials completed,,
,,,,,,,21,male,A,2020-05-04_22h41.59.244,Remembering_Displays,2020.1.2,Win32,60,1,1,0.54482,9,1,0.54045,0,0,0,19,1,Stimuli/testStimuliSquare/6u_s_22_s_2D.png,Stimuli/testStimuliSquare/6u_d_22_s_2D.png,1,1,,,,,,,,,s,2D
,,,,,,,21,male,A,2020-05-04_22h41.59.244,Remembering_Displays,2020.1.2,Win32,60,1,0,0.68418,9,1,0.433595,0,1,1,4,1,Stimuli/testStimuliSquare/6u_s_21_2D.png,Stimuli/testStimuliSquare/6u_s_21_2D.png,0,9,,,,,,,,,c,2D
,,,,,,,21,male,A,2020-05-04_22h41.59.244,Remembering_Displays,2020.1.2,Win32,60,1,1,0.575365,9,1,0.400215,0,2,2,11,1,Stimuli/testStimuliSquare/6u_s_24_2D.png,Stimuli/testStimuliSquare/6u_d_24_2D.png,1,1,,,,,,,,,c,2D
,,,,,,,21,male,A,2020-05-04_22h41.59.244,Remembering_Displays,2020.1.2,Win32,60,1,1,0.51484,9,1,0.478645,0,3,3,13,1,Stimuli/testStimuliSquare/6u_s_19_s_2D.png,Stimuli/testStimuliSquare/6u_d_19_s_2D.png,1,1,,,,,,,,,s,2D
,,,,,,,21,male,A,2020-05-04_22h41.59.244,Remembering_Displays,2020.1.2,Win32,60,9,1,0.64164,1,1,0.785655,0,4,4,18,1,Stimuli/testStimuliSquare/6u_s_22_s_2D.png,Stimuli/testStimuliSquare/6u_s_22_s_2D.png,0,9,,,,,,,,,s,2D
,,,,,,,21,male,A,2020-05-04_22h41.59.244,Remembering_Displays,2020.1.2,Win32,60,1,1,0.502255,9,1,0.38458,0,5,5,15,1,Stimuli/testStimuliSquare/6u_s_20_s_2D.png,Stimuli/testStimuliSquare/6u_d_20_s_2D.png,1,1,,,,,,,,,s,2D
,,,,,,,21,male,A,2020-05-04_22h41.59.244,Remembering_Displays,2020.1.2,Win32,60,1,1,0.52636,1,1,0.46243,0,6,6,7,1,Stimuli/testStimuliSquare/6u_s_22_2D.png,Stimuli/testStimuliSquare/6u_d_22_2D.png,1,1,,,,,,,,,c,2D
,,,,,,,21,male,A,2020-05-04_22h41.59.244,Remembering_Displays,2020.1.2,Win32,60,9,1,0.59188,9,1,0.32752,0,7,7,6,1,Stimuli/testStimuliSquare/6u_s_22_2D.png,Stimuli/testStimuliSquare/6u_s_22_2D.png,0,9,,,,,,,,,c,2D
,,,,,,,21,male,A,2020-05-04_22h41.59.244,Remembering_Displays,2020.1.2,Win32,60,1,1,0.527295,9,1,0.78892,0,8,8,17,1,Stimuli/testStimuliSquare/6u_s_21_s_2D.png,Stimuli/testStimuliSquare/6u_d_21_s_2D.png,1,1,,,,,,,,,s,2D
,,,,,,,21,male,A,2020-05-04_22h41.59.244,Remembering_Displays,2020.1.2,Win32,60,9,1,0.483815,1,1,3.457165,0,9,9,8,1,Stimuli/testStimuliSquare/6u_s_23_2D.png,Stimuli/testStimuliSquare/6u_s_23_2D.png,0,9,,,,,,,,,c,2D
,,,,,,,21,male,A,2020-05-04_22h41.59.244,Remembering_Displays,2020.1.2,Win32,60,9,1,0.58136,9,1,0.387625,0,10,10,12,1,Stimuli/testStimuliSquare/6u_s_19_s_2D.png,Stimuli/testStimuliSquare/6u_s_19_s_2D.png,0,9,,,,,,,,,s,2D
,,,,,,,21,male,A,2020-05-04_22h41.59.244,Remembering_Displays,2020.1.2,Win32,60,9,1,0.514435,1,1,0.370325,0,11,11,0,1,Stimuli/testStimuliSquare/6u_s_19_2D.png,Stimuli/testStimuliSquare/6u_s_19_2D.png,0,9,,,,,,,,,c,2D
,,,,,,,21,male,A,2020-05-04_22h41.59.244,Remembering_Displays,2020.1.2,Win32,60,9,1,0.50229,1,1,0.330425,0,12,12,20,1,Stimuli/testStimuliSquare/6u_s_23_s_2D.png,Stimuli/testStimuliSquare/6u_s_23_s_2D.png,0,9,,,,,,,,,s,2D
,,,,,,,21,male,A,2020-05-04_22h41.59.244,Remembering_Displays,2020.1.2,Win32,60,1,1,0.480555,1,1,0.266345,0,13,13,23,1,Stimuli/testStimuliSquare/6u_s_24_s_2D.png,Stimuli/testStimuliSquare/6u_d_24_s_2D.png,1,1,,,,,,,,,s,2D
,,,,,,,21,male,A,2020-05-04_22h41.59.244,Remembering_Displays,2020.1.2,Win32,60,9,1,0.527885,9,1,0.490645,0,14,14,14,1,Stimuli/testStimuliSquare/6u_s_20_s_2D.png,Stimuli/testStimuliSquare/6u_s_20_s_2D.png,0,9,,,,,,,,,s,2D
,,,,,,,21,male,A,2020-05-04_22h41.59.244,Remembering_Displays,2020.1.2,Win32,60,1,1,0.600765,9,1,0.527005,0,15,15,5,1,Stimuli/testStimuliSquare/6u_s_21_2D.png,Stimuli/testStimuliSquare/6u_d_21_2D.png,1,1,,,,,,,,,c,2D
,,,,,,,21,male,A,2020-05-04_22h41.59.244,Remembering_Displays,2020.1.2,Win32,60,9,1,0.5397,1,1,0.401855,0,16,16,22,1,Stimuli/testStimuliSquare/6u_s_24_s_2D.png,Stimuli/testStimuliSquare/6u_s_24_s_2D.png,0,9,,,,,,,,,s,2D
,,,,,,,21,male,A,2020-05-04_22h41.59.244,Remembering_Displays,2020.1.2,Win32,60,9,1,0.577525,9,1,0.689145,0,17,17,10,1,Stimuli/testStimuliSquare/6u_s_24_2D.png,Stimuli/testStimuliSquare/6u_s_24_2D.png,0,9,,,,,,,,,c,2D
,,,,,,,21,male,A,2020-05-04_22h41.59.244,Remembering_Displays,2020.1.2,Win32,60,1,1,0.774135,1,1,0.471265,0,18,18,9,1,Stimuli/testStimuliSquare/6u_s_23_2D.png,Stimuli/testStimuliSquare/6u_d_23_2D.png,1,1,,,,,,,,,c,2D
,,,,,,,21,male,A,2020-05-04_22h41.59.244,Remembering_Displays,2020.1.2,Win32,60,9,1,0.472485,9,1,0.839985,0,19,19,2,1,Stimuli/testStimuliSquare/6u_s_20_2D.png,Stimuli/testStimuliSquare/6u_s_20_2D.png,0,9,,,,,,,,,c,2D
,,,,,,,21,male,A,2020-05-04_22h41.59.244,Remembering_Displays,2020.1.2,Win32,60,1,1,0.547225,1,1,0.598355,0,20,20,21,1,Stimuli/testStimuliSquare/6u_s_23_s_2D.png,Stimuli/testStimuliSquare/6u_d_23_s_2D.png,1,1,,,,,,,,,s,2D
,,,,,,,21,male,A,2020-05-04_22h41.59.244,Remembering_Displays,2020.1.2,Win32,60,9,1,0.53901,9,1,0.483955,0,21,21,16,1,Stimuli/testStimuliSquare/6u_s_21_s_2D.png,Stimuli/testStimuliSquare/6u_s_21_s_2D.png,0,9,,,,,,,,,s,2D
,,,,,,,21,male,A,2020-05-04_22h41.59.244,Remembering_Displays,2020.1.2,Win32,60,1,1,0.640805,9,1,0.37622,0,22,22,1,1,Stimuli/testStimuliSquare/6u_s_19_2D.png,Stimuli/testStimuliSquare/6u_d_19_2D.png,1,1,,,,,,,,,c,2D
,,,,,,,21,male,A,2020-05-04_22h41.59.244,Remembering_Displays,2020.1.2,Win32,60,1,1,0.562865,9,1,0.44228,0,23,23,3,1,Stimuli/testStimuliSquare/6u_s_20_2D.png,Stimuli/testStimuliSquare/6u_d_20_2D.png,1,1,,,,,,,,,c,2D
,,,,,,,21,male,A,2020-05-04_22h41.59.244,Remembering_Displays,2020.1.2,Win32,60,,,,,,,,,,,,,,,,0,8,8,8,1,Stimuli/trialListSquares4.xlsx,Instructions/instr_18.png,Progress: 168 of 192 trials completed,,
,,,,,,,21,male,A,2020-05-04_22h41.59.244,Remembering_Displays,2020.1.2,Win32,60,9,1,0.585005,1,1,0.36541,0,0,0,14,1,Stimuli/testStimuliCube/6u_s_2_s.png,Stimuli/testStimuliCube/6u_s_2_s.png,0,9,,,,,,,,,s,3D
,,,,,,,21,male,A,2020-05-04_22h41.59.244,Remembering_Displays,2020.1.2,Win32,60,1,1,0.50019,9,1,0.560825,0,1,1,7,1,Stimuli/testStimuliCube/6u_s_4.png,Stimuli/testStimuliCube/6u_d_4.png,1,1,,,,,,,,,c,3D
,,,,,,,21,male,A,2020-05-04_22h41.59.244,Remembering_Displays,2020.1.2,Win32,60,9,1,0.676515,1,1,0.299255,0,2,2,20,1,Stimuli/testStimuliCube/6u_s_5_s.png,Stimuli/testStimuliCube/6u_s_5_s.png,0,9,,,,,,,,,s,3D
,,,,,,,21,male,A,2020-05-04_22h41.59.244,Remembering_Displays,2020.1.2,Win32,60,9,1,0.60794,1,1,0.28155,0,3,3,12,1,Stimuli/testStimuliCube/6u_s_1_s.png,Stimuli/testStimuliCube/6u_s_1_s.png,0,9,,,,,,,,,s,3D
,,,,,,,21,male,A,2020-05-04_22h41.59.244,Remembering_Displays,2020.1.2,Win32,60,1,1,0.668325,1,1,0.297465,0,4,4,23,1,Stimuli/testStimuliCube/6u_s_6_s.png,Stimuli/testStimuliCube/6u_d_6_s.png,1,1,,,,,,,,,s,3D
,,,,,,,21,male,A,2020-05-04_22h41.59.244,Remembering_Displays,2020.1.2,Win32,60,1,1,0.52926,1,1,0.384645,0,5,5,19,1,Stimuli/testStimuliCube/6u_s_4_s.png,Stimuli/testStimuliCube/6u_d_4_s.png,1,1,,,,,,,,,s,3D
,,,,,,,21,male,A,2020-05-04_22h41.59.244,Remembering_Displays,2020.1.2,Win32,60,1,1,0.665135,9,1,0.46461,0,6,6,1,1,Stimuli/testStimuliCube/6u_s_1.png,Stimuli/testStimuliCube/6u_d_1.png,1,1,,,,,,,,,c,3D
,,,,,,,21,male,A,2020-05-04_22h41.59.244,Remembering_Displays,2020.1.2,Win32,60,9,1,0.61051,9,1,0.367075,0,7,7,22,1,Stimuli/testStimuliCube/6u_s_6_s.png,Stimuli/testStimuliCube/6u_s_6_s.png,0,9,,,,,,,,,s,3D
,,,,,,,21,male,A,2020-05-04_22h41.59.244,Remembering_Displays,2020.1.2,Win32,60,9,1,0.536,9,1,0.33677,0,8,8,6,1,Stimuli/testStimuliCube/6u_s_4.png,Stimuli/testStimuliCube/6u_s_4.png,0,9,,,,,,,,,c,3D
,,,,,,,21,male,A,2020-05-04_22h41.59.244,Remembering_Displays,2020.1.2,Win32,60,1,1,0.558215,9,1,0.373395,0,9,9,13,1,Stimuli/testStimuliCube/6u_s_1_s.png,Stimuli/testStimuliCube/6u_d_1_s.png,1,1,,,,,,,,,s,3D
,,,,,,,21,male,A,2020-05-04_22h41.59.244,Remembering_Displays,2020.1.2,Win32,60,1,1,0.522615,9,1,0.473435,0,10,10,11,1,Stimuli/testStimuliCube/6u_s_6.png,Stimuli/testStimuliCube/6u_d_6.png,1,1,,,,,,,,,c,3D
,,,,,,,21,male,A,2020-05-04_22h41.59.244,Remembering_Displays,2020.1.2,Win32,60,9,0,0.582805,9,1,0.49568,0,11,11,9,1,Stimuli/testStimuliCube/6u_s_5.png,Stimuli/testStimuliCube/6u_d_5.png,1,1,,,,,,,,,c,3D
,,,,,,,21,male,A,2020-05-04_22h41.59.244,Remembering_Displays,2020.1.2,Win32,60,1,1,0.61973,9,1,0.376775,0,12,12,5,1,Stimuli/testStimuliCube/6u_s_3.png,Stimuli/testStimuliCube/6u_d_3.png,1,1,,,,,,,,,c,3D
,,,,,,,21,male,A,2020-05-04_22h41.59.244,Remembering_Displays,2020.1.2,Win32,60,9,1,0.576845,1,1,0.358915,0,13,13,18,1,Stimuli/testStimuliCube/6u_s_4_s.png,Stimuli/testStimuliCube/6u_s_4_s.png,0,9,,,,,,,,,s,3D
,,,,,,,21,male,A,2020-05-04_22h41.59.244,Remembering_Displays,2020.1.2,Win32,60,9,0,0.516025,9,1,0.44501,0,14,14,15,1,Stimuli/testStimuliCube/6u_s_2_s.png,Stimuli/testStimuliCube/6u_d_2_s.png,1,1,,,,,,,,,s,3D
,,,,,,,21,male,A,2020-05-04_22h41.59.244,Remembering_Displays,2020.1.2,Win32,60,1,1,0.80014,9,1,0.45257,0,15,15,21,1,Stimuli/testStimuliCube/6u_s_5_s.png,Stimuli/testStimuliCube/6u_d_5_s.png,1,1,,,,,,,,,s,3D
,,,,,,,21,male,A,2020-05-04_22h41.59.244,Remembering_Displays,2020.1.2,Win32,60,9,1,0.592145,1,1,0.746585,0,16,16,4,1,Stimuli/testStimuliCube/6u_s_3.png,Stimuli/testStimuliCube/6u_s_3.png,0,9,,,,,,,,,c,3D
,,,,,,,21,male,A,2020-05-04_22h41.59.244,Remembering_Displays,2020.1.2,Win32,60,1,1,0.59056,9,1,0.77072,0,17,17,3,1,Stimuli/testStimuliCube/6u_s_2.png,Stimuli/testStimuliCube/6u_d_2.png,1,1,,,,,,,,,c,3D
,,,,,,,21,male,A,2020-05-04_22h41.59.244,Remembering_Displays,2020.1.2,Win32,60,1,1,0.571455,1,1,0.4847,0,18,18,17,1,Stimuli/testStimuliCube/6u_s_3_s.png,Stimuli/testStimuliCube/6u_d_3_s.png,1,1,,,,,,,,,s,3D
,,,,,,,21,male,A,2020-05-04_22h41.59.244,Remembering_Displays,2020.1.2,Win32,60,1,0,0.572765,9,1,0.28545,0,19,19,10,1,Stimuli/testStimuliCube/6u_s_6.png,Stimuli/testStimuliCube/6u_s_6.png,0,9,,,,,,,,,c,3D
,,,,,,,21,male,A,2020-05-04_22h41.59.244,Remembering_Displays,2020.1.2,Win32,60,9,1,0.672845,9,1,0.39934,0,20,20,8,1,Stimuli/testStimuliCube/6u_s_5.png,Stimuli/testStimuliCube/6u_s_5.png,0,9,,,,,,,,,c,3D
,,,,,,,21,male,A,2020-05-04_22h41.59.244,Remembering_Displays,2020.1.2,Win32,60,9,1,0.626195,9,1,0.391695,0,21,21,2,1,Stimuli/testStimuliCube/6u_s_2.png,Stimuli/testStimuliCube/6u_s_2.png,0,9,,,,,,,,,c,3D
,,,,,,,21,male,A,2020-05-04_22h41.59.244,Remembering_Displays,2020.1.2,Win32,60,9,1,0.6317,9,1,0.594885,0,22,22,16,1,Stimuli/testStimuliCube/6u_s_3_s.png,Stimuli/testStimuliCube/6u_s_3_s.png,0,9,,,,,,,,,s,3D
,,,,,,,21,male,A,2020-05-04_22h41.59.244,Remembering_Displays,2020.1.2,Win32,60,9,1,0.59317,9,1,0.851125,0,23,23,0,1,Stimuli/testStimuliCube/6u_s_1.png,Stimuli/testStimuliCube/6u_s_1.png,0,9,,,,,,,,,c,3D