instr_Loop.thisRepN,instr_Loop.thisTrialN,instr_Loop.thisN,instr_Loop.thisIndex,instr_Loop.ran,instructionImage,time,age,sex (female/male),order,date,expName,psychopyVersion,OS,frameRate,struc_judge_respond.keys,struc_judge_respond.corr,dual_respond.keys,dual_respond.corr,dual_respond.rt,trials.thisRepN,trials.thisTrialN,trials.thisN,trials.thisIndex,trials.ran,stim1,stim2,isAnyChange,corrAns,struc_judge_respond.rt,selectBlock.thisRepN,selectBlock.thisTrialN,selectBlock.thisN,selectBlock.thisIndex,selectBlock.ran,condsFile,condsImage,remaining,connected,dimensionality
0,0,0,0,1,Instructions/consent.png,3,18,female,A,2020-05-11_13h17.41.808,Remembering_Displays,2020.1.2,Win32,60,,,,,,,,,,,,,,,,,,,,,,,,,
0,1,1,1,1,Instructions/instr_1.png,5,18,female,A,2020-05-11_13h17.41.808,Remembering_Displays,2020.1.2,Win32,60,,,,,,,,,,,,,,,,,,,,,,,,,
0,2,2,2,1,Instructions/instr_2.png,3,18,female,A,2020-05-11_13h17.41.808,Remembering_Displays,2020.1.2,Win32,60,,,,,,,,,,,,,,,,,,,,,,,,,
0,3,3,3,1,Instructions/instr_3.png,5,18,female,A,2020-05-11_13h17.41.808,Remembering_Displays,2020.1.2,Win32,60,,,,,,,,,,,,,,,,,,,,,,,,,
0,4,4,4,1,Instructions/instr_4.png,1,18,female,A,2020-05-11_13h17.41.808,Remembering_Displays,2020.1.2,Win32,60,,,,,,,,,,,,,,,,,,,,,,,,,
0,5,5,5,1,Instructions/instr_5.png,1,18,female,A,2020-05-11_13h17.41.808,Remembering_Displays,2020.1.2,Win32,60,,,,,,,,,,,,,,,,,,,,,,,,,
0,6,6,6,1,Instructions/instr_6.png,1,18,female,A,2020-05-11_13h17.41.808,Remembering_Displays,2020.1.2,Win32,60,,,,,,,,,,,,,,,,,,,,,,,,,
0,7,7,7,1,Instructions/instr_7.png,1,18,female,A,2020-05-11_13h17.41.808,Remembering_Displays,2020.1.2,Win32,60,,,,,,,,,,,,,,,,,,,,,,,,,
0,8,8,8,1,Instructions/instr_8.png,3,18,female,A,2020-05-11_13h17.41.808,Remembering_Displays,2020.1.2,Win32,60,,,,,,,,,,,,,,,,,,,,,,,,,
0,9,9,9,1,Instructions/instr_9.png,3,18,female,A,2020-05-11_13h17.41.808,Remembering_Displays,2020.1.2,Win32,60,,,,,,,,,,,,,,,,,,,,,,,,,
0,10,10,10,1,Instructions/instr_10.png,3,18,female,A,2020-05-11_13h17.41.808,Remembering_Displays,2020.1.2,Win32,60,,,,,,,,,,,,,,,,,,,,,,,,,
0,11,11,11,1,Instructions/instr_11.png,3,18,female,A,2020-05-11_13h17.41.808,Remembering_Displays,2020.1.2,Win32,60,,,,,,,,,,,,,,,,,,,,,,,,,
0,12,12,12,1,Instructions/instr_12.png,3,18,female,A,2020-05-11_13h17.41.808,Remembering_Displays,2020.1.2,Win32,60,,,,,,,,,,,,,,,,,,,,,,,,,
0,13,13,13,1,Instructions/instr_13.png,3,18,female,A,2020-05-11_13h17.41.808,Remembering_Displays,2020.1.2,Win32,60,,,,,,,,,,,,,,,,,,,,,,,,,
0,14,14,14,1,Instructions/instr_14.png,3,18,female,A,2020-05-11_13h17.41.808,Remembering_Displays,2020.1.2,Win32,60,,,,,,,,,,,,,,,,,,,,,,,,,
0,15,15,15,1,Instructions/instr_15.png,3,18,female,A,2020-05-11_13h17.41.808,Remembering_Displays,2020.1.2,Win32,60,,,,,,,,,,,,,,,,,,,,,,,,,
0,16,16,16,1,Instructions/instr_16.png,5,18,female,A,2020-05-11_13h17.41.808,Remembering_Displays,2020.1.2,Win32,60,,,,,,,,,,,,,,,,,,,,,,,,,
,,,,,,,18,female,A,2020-05-11_13h17.41.808,Remembering_Displays,2020.1.2,Win32,60,,0,1,1,3.77058,0,0,0,5,1,Stimuli/practiceStimuliSquare/practice2_s.png,Stimuli/practiceStimuliSquare/practice2_s.png,0,9,,,,,,,,,,,
,,,,,,,18,female,A,2020-05-11_13h17.41.808,Remembering_Displays,2020.1.2,Win32,60,9,1,1,1,1.218725,0,1,1,0,1,Stimuli/practiceStimuliSquare/practice1_s.png,Stimuli/practiceStimuliSquare/practice1_s.png,0,9,1.082635,,,,,,,,,,
,,,,,,,18,female,A,2020-05-11_13h17.41.808,Remembering_Displays,2020.1.2,Win32,60,9,0,9,0,2.67205,0,2,2,4,1,Stimuli/practiceStimuliSquare/practice1_s.png,Stimuli/practiceStimuliSquare/practice1_d.png,1,1,0.955245,,,,,,,,,,
,,,,,,,18,female,A,2020-05-11_13h17.41.808,Remembering_Displays,2020.1.2,Win32,60,1,1,1,1,1.860755,0,3,3,1,1,Stimuli/practiceStimuliSquare/practice2_s.png,Stimuli/practiceStimuliSquare/practice2_d.png,1,1,1.10825,,,,,,,,,,
,,,,,,,18,female,A,2020-05-11_13h17.41.808,Remembering_Displays,2020.1.2,Win32,60,,0,9,1,1.70203,0,4,4,6,1,Stimuli/practiceStimuliSquare/practice3_s.png,Stimuli/practiceStimuliSquare/practice3_d.png,1,1,,,,,,,,,,,
,,,,,,,18,female,A,2020-05-11_13h17.41.808,Remembering_Displays,2020.1.2,Win32,60,9,1,1,1,1.254675,0,5,5,7,1,Stimuli/practiceStimuliSquare/practice4_s.png,Stimuli/practiceStimuliSquare/practice4_s.png,0,9,0.995925,,,,,,,,,,
,,,,,,,18,female,A,2020-05-11_13h17.41.808,Remembering_Displays,2020.1.2,Win32,60,9,1,1,1,1.741155,0,6,6,2,1,Stimuli/practiceStimuliSquare/practice3_s.png,Stimuli/practiceStimuliSquare/practice3_s.png,0,9,0.920565,,,,,,,,,,
,,,,,,,18,female,A,2020-05-11_13h17.41.808,Remembering_Displays,2020.1.2,Win32,60,1,1,9,1,1.275845,0,7,7,3,1,Stimuli/practiceStimuliSquare/practice4_s.png,Stimuli/practiceStimuliSquare/practice4_d.png,1,1,1.242265,,,,,,,,,,
,,,,,,,18,female,A,2020-05-11_13h17.41.808,Remembering_Displays,2020.1.2,Win32,60,,,,,,,,,,,,,,,,0,0,0,0,1,Stimuli/practiceListSquares.xlsx,Instructions/instr_practice_A.png,Practice trials completed,,
,,,,,,,18,female,A,2020-05-11_13h17.41.808,Remembering_Displays,2020.1.2,Win32,60,,0,9,0,1.634945,0,0,0,15,1,Stimuli/testStimuliSquare/6u_s_2_s_2D.png,Stimuli/testStimuliSquare/6u_d_2_s_2D.png,1,1,,,,,,,,,,s,2D
,,,,,,,18,female,A,2020-05-11_13h17.41.808,Remembering_Displays,2020.1.2,Win32,60,9,1,9,1,1.39574,0,1,1,12,1,Stimuli/testStimuliSquare/6u_s_1_s_2D.png,Stimuli/testStimuliSquare/6u_s_1_s_2D.png,0,9,1.03872,,,,,,,,,s,2D
,,,,,,,18,female,A,2020-05-11_13h17.41.808,Remembering_Displays,2020.1.2,Win32,60,1,1,1,1,1.512895,0,2,2,1,1,Stimuli/testStimuliSquare/6u_s_1_2D.png,Stimuli/testStimuliSquare/6u_d_1_2D.png,1,1,1.182395,,,,,,,,,c,2D
,,,,,,,18,female,A,2020-05-11_13h17.41.808,Remembering_Displays,2020.1.2,Win32,60,1,1,1,1,2.339065,0,3,3,3,1,Stimuli/testStimuliSquare/6u_s_2_2D.png,Stimuli/testStimuliSquare/6u_d_2_2D.png,1,1,0.931185,,,,,,,,,c,2D
,,,,,,,18,female,A,2020-05-11_13h17.41.808,Remembering_Displays,2020.1.2,Win32,60,1,1,1,1,1.25182,0,4,4,23,1,Stimuli/testStimuliSquare/6u_s_6_s_2D.png,Stimuli/testStimuliSquare/6u_d_6_s_2D.png,1,1,0.995,,,,,,,,,s,2D
,,,,,,,18,female,A,2020-05-11_13h17.41.808,Remembering_Displays,2020.1.2,Win32,60,9,1,1,1,1.139975,0,5,5,16,1,Stimuli/testStimuliSquare/6u_s_3_s_2D.png,Stimuli/testStimuliSquare/6u_s_3_s_2D.png,0,9,1.00578,,,,,,,,,s,2D
,,,,,,,18,female,A,2020-05-11_13h17.41.808,Remembering_Displays,2020.1.2,Win32,60,9,1,1,1,1.35228,0,6,6,2,1,Stimuli/testStimuliSquare/6u_s_2_2D.png,Stimuli/testStimuliSquare/6u_s_2_2D.png,0,9,0.92747,,,,,,,,,c,2D
,,,,,,,18,female,A,2020-05-11_13h17.41.808,Remembering_Displays,2020.1.2,Win32,60,1,1,9,1,1.471505,0,7,7,13,1,Stimuli/testStimuliSquare/6u_s_1_s_2D.png,Stimuli/testStimuliSquare/6u_d_1_s_2D.png,1,1,0.981845,,,,,,,,,s,2D
,,,,,,,18,female,A,2020-05-11_13h17.41.808,Remembering_Displays,2020.1.2,Win32,60,9,1,1,1,1.285225,0,8,8,8,1,Stimuli/testStimuliSquare/6u_s_5_2D.png,Stimuli/testStimuliSquare/6u_s_5_2D.png,0,9,1.090695,,,,,,,,,c,2D
,,,,,,,18,female,A,2020-05-11_13h17.41.808,Remembering_Displays,2020.1.2,Win32,60,9,0,1,1,1.09393,0,9,9,9,1,Stimuli/testStimuliSquare/6u_s_5_2D.png,Stimuli/testStimuliSquare/6u_d_5_2D.png,1,1,0.840525,,,,,,,,,c,2D
,,,,,,,18,female,A,2020-05-11_13h17.41.808,Remembering_Displays,2020.1.2,Win32,60,,0,1,1,0.92162,0,10,10,5,1,Stimuli/testStimuliSquare/6u_s_3_2D.png,Stimuli/testStimuliSquare/6u_d_3_2D.png,1,1,,,,,,,,,,c,2D
,,,,,,,18,female,A,2020-05-11_13h17.41.808,Remembering_Displays,2020.1.2,Win32,60,9,1,1,1,1.71095,0,11,11,20,1,Stimuli/testStimuliSquare/6u_s_5_s_2D.png,Stimuli/testStimuliSquare/6u_s_5_s_2D.png,0,9,0.926875,,,,,,,,,s,2D
,,,,,,,18,female,A,2020-05-11_13h17.41.808,Remembering_Displays,2020.1.2,Win32,60,9,0,1,1,2.20291,0,12,12,11,1,Stimuli/testStimuliSquare/6u_s_6_2D.png,Stimuli/testStimuliSquare/6u_d_6_2D.png,1,1,0.83696,,,,,,,,,c,2D
,,,,,,,18,female,A,2020-05-11_13h17.41.808,Remembering_Displays,2020.1.2,Win32,60,9,1,1,1,1.134215,0,13,13,14,1,Stimuli/testStimuliSquare/6u_s_2_s_2D.png,Stimuli/testStimuliSquare/6u_s_2_s_2D.png,0,9,1.081235,,,,,,,,,s,2D
,,,,,,,18,female,A,2020-05-11_13h17.41.808,Remembering_Displays,2020.1.2,Win32,60,1,1,1,1,1.051525,0,14,14,17,1,Stimuli/testStimuliSquare/6u_s_3_s_2D.png,Stimuli/testStimuliSquare/6u_d_3_s_2D.png,1,1,1.27482,,,,,,,,,s,2D
,,,,,,,18,female,A,2020-05-11_13h17.41.808,Remembering_Displays,2020.1.2,Win32,60,1,1,1,1,0.636205,0,15,15,19,1,Stimuli/testStimuliSquare/6u_s_4_s_2D.png,Stimuli/testStimuliSquare/6u_d_4_s_2D.png,1,1,0.945015,,,,,,,,,s,2D
,,,,,,,18,female,A,2020-05-11_13h17.41.808,Remembering_Displays,2020.1.2,Win32,60,9,1,9,1,1.4689,0,16,16,10,1,Stimuli/testStimuliSquare/6u_s_6_2D.png,Stimuli/testStimuliSquare/6u_s_6_2D.png,0,9,0.74419,,,,,,,,,c,2D
,,,,,,,18,female,A,2020-05-11_13h17.41.808,Remembering_Displays,2020.1.2,Win32,60,9,1,1,1,0.98651,0,17,17,0,1,Stimuli/testStimuliSquare/6u_s_1_2D.png,Stimuli/testStimuliSquare/6u_s_1_2D.png,0,9,0.919135,,,,,,,,,c,2D
,,,,,,,18,female,A,2020-05-11_13h17.41.808,Remembering_Displays,2020.1.2,Win32,60,9,0,1,0,1.462575,0,18,18,21,1,Stimuli/testStimuliSquare/6u_s_5_s_2D.png,Stimuli/testStimuliSquare/6u_d_5_s_2D.png,1,1,0.768515,,,,,,,,,s,2D
,,,,,,,18,female,A,2020-05-11_13h17.41.808,Remembering_Displays,2020.1.2,Win32,60,9,1,9,1,1.470165,0,19,19,6,1,Stimuli/testStimuliSquare/6u_s_4_2D.png,Stimuli/testStimuliSquare/6u_s_4_2D.png,0,9,0.86949,,,,,,,,,c,2D
,,,,,,,18,female,A,2020-05-11_13h17.41.808,Remembering_Displays,2020.1.2,Win32,60,9,1,9,1,1.068575,0,20,20,4,1,Stimuli/testStimuliSquare/6u_s_3_2D.png,Stimuli/testStimuliSquare/6u_s_3_2D.png,0,9,0.70716,,,,,,,,,c,2D
,,,,,,,18,female,A,2020-05-11_13h17.41.808,Remembering_Displays,2020.1.2,Win32,60,9,1,1,1,0.835545,0,21,21,18,1,Stimuli/testStimuliSquare/6u_s_4_s_2D.png,Stimuli/testStimuliSquare/6u_s_4_s_2D.png,0,9,1.21894,,,,,,,,,s,2D
,,,,,,,18,female,A,2020-05-11_13h17.41.808,Remembering_Displays,2020.1.2,Win32,60,9,1,1,1,0.57766,0,22,22,22,1,Stimuli/testStimuliSquare/6u_s_6_s_2D.png,Stimuli/testStimuliSquare/6u_s_6_s_2D.png,0,9,0.65151,,,,,,,,,s,2D
,,,,,,,18,female,A,2020-05-11_13h17.41.808,Remembering_Displays,2020.1.2,Win32,60,1,1,9,1,1.039495,0,23,23,7,1,Stimuli/testStimuliSquare/6u_s_4_2D.png,Stimuli/testStimuliSquare/6u_d_4_2D.png,1,1,1.033275,,,,,,,,,c,2D
,,,,,,,18,female,A,2020-05-11_13h17.41.808,Remembering_Displays,2020.1.2,Win32,60,,,,,,,,,,,,,,,,0,1,1,1,1,Stimuli/trialListSquares1.xlsx,Instructions/instr_18.png,Progress: 24 of 192 trials completed,,
,,,,,,,18,female,A,2020-05-11_13h17.41.808,Remembering_Displays,2020.1.2,Win32,60,9,1,1,1,0.677325,0,0,0,7,1,Stimuli/practiceStimuliCube/practice4_s.png,Stimuli/practiceStimuliCube/practice4_s.png,0,9,1.042795,,,,,,,,,,
,,,,,,,18,female,A,2020-05-11_13h17.41.808,Remembering_Displays,2020.1.2,Win32,60,9,1,1,1,1.119215,0,1,1,0,1,Stimuli/practiceStimuliCube/practice1_s.png,Stimuli/practiceStimuliCube/practice1_s.png,0,9,0.763755,,,,,,,,,,
,,,,,,,18,female,A,2020-05-11_13h17.41.808,Remembering_Displays,2020.1.2,Win32,60,1,1,1,1,1.51911,0,2,2,4,1,Stimuli/practiceStimuliCube/practice1_s.png,Stimuli/practiceStimuliCube/practice1_d.png,1,1,0.725805,,,,,,,,,,
,,,,,,,18,female,A,2020-05-11_13h17.41.808,Remembering_Displays,2020.1.2,Win32,60,1,1,1,0,0.98907,0,3,3,6,1,Stimuli/practiceStimuliCube/practice3_s.png,Stimuli/practiceStimuliCube/practice3_d.png,1,1,0.890135,,,,,,,,,,
,,,,,,,18,female,A,2020-05-11_13h17.41.808,Remembering_Displays,2020.1.2,Win32,60,1,1,1,1,0.818305,0,4,4,1,1,Stimuli/practiceStimuliCube/practice2_s.png,Stimuli/practiceStimuliCube/practice2_d.png,1,1,0.9954,,,,,,,,,,
,,,,,,,18,female,A,2020-05-11_13h17.41.808,Remembering_Displays,2020.1.2,Win32,60,9,1,9,1,1.508015,0,5,5,2,1,Stimuli/practiceStimuliCube/practice3_s.png,Stimuli/practiceStimuliCube/practice3_s.png,0,9,0.894845,,,,,,,,,,
,,,,,,,18,female,A,2020-05-11_13h17.41.808,Remembering_Displays,2020.1.2,Win32,60,9,1,9,1,0.644315,0,6,6,5,1,Stimuli/practiceStimuliCube/practice2_s.png,Stimuli/practiceStimuliCube/practice2_s.png,0,9,0.67492,,,,,,,,,,
,,,,,,,18,female,A,2020-05-11_13h17.41.808,Remembering_Displays,2020.1.2,Win32,60,9,0,1,1,1.43473,0,7,7,3,1,Stimuli/practiceStimuliCube/practice4_s.png,Stimuli/practiceStimuliCube/practice4_d.png,1,1,1.39345,,,,,,,,,,
,,,,,,,18,female,A,2020-05-11_13h17.41.808,Remembering_Displays,2020.1.2,Win32,60,,,,,,,,,,,,,,,,0,2,2,2,1,Stimuli/practiceListCubes.xlsx,Instructions/instr_practice_B.png,Practice trials completed,,
,,,,,,,18,female,A,2020-05-11_13h17.41.808,Remembering_Displays,2020.1.2,Win32,60,1,0,1,0,1.47118,0,0,0,20,1,Stimuli/testStimuliCube/6u_s_23_s.png,Stimuli/testStimuliCube/6u_s_23_s.png,0,9,0.764055,,,,,,,,,s,3D
,,,,,,,18,female,A,2020-05-11_13h17.41.808,Remembering_Displays,2020.1.2,Win32,60,,0,1,1,1.219295,0,1,1,14,1,Stimuli/testStimuliCube/6u_s_20_s.png,Stimuli/testStimuliCube/6u_s_20_s.png,0,9,,,,,,,,,,s,3D
,,,,,,,18,female,A,2020-05-11_13h17.41.808,Remembering_Displays,2020.1.2,Win32,60,9,1,1,1,1.206825,0,2,2,2,1,Stimuli/testStimuliCube/6u_s_20.png,Stimuli/testStimuliCube/6u_s_20.png,0,9,0.707305,,,,,,,,,c,3D
,,,,,,,18,female,A,2020-05-11_13h17.41.808,Remembering_Displays,2020.1.2,Win32,60,9,1,9,1,1.162595,0,3,3,6,1,Stimuli/testStimuliCube/6u_s_22.png,Stimuli/testStimuliCube/6u_s_22.png,0,9,1.202165,,,,,,,,,c,3D
,,,,,,,18,female,A,2020-05-11_13h17.41.808,Remembering_Displays,2020.1.2,Win32,60,1,1,1,1,1.17875,0,4,4,17,1,Stimuli/testStimuliCube/6u_s_21_s.png,Stimuli/testStimuliCube/6u_d_21_s.png,1,1,1.048255,,,,,,,,,s,3D
,,,,,,,18,female,A,2020-05-11_13h17.41.808,Remembering_Displays,2020.1.2,Win32,60,1,1,9,1,1.127635,0,5,5,7,1,Stimuli/testStimuliCube/6u_s_22.png,Stimuli/testStimuliCube/6u_d_22.png,1,1,0.757665,,,,,,,,,c,3D
,,,,,,,18,female,A,2020-05-11_13h17.41.808,Remembering_Displays,2020.1.2,Win32,60,1,1,1,1,0.760205,0,6,6,21,1,Stimuli/testStimuliCube/6u_s_23_s.png,Stimuli/testStimuliCube/6u_d_23_s.png,1,1,0.874665,,,,,,,,,s,3D
,,,,,,,18,female,A,2020-05-11_13h17.41.808,Remembering_Displays,2020.1.2,Win32,60,1,1,1,1,0.595915,0,7,7,15,1,Stimuli/testStimuliCube/6u_s_20_s.png,Stimuli/testStimuliCube/6u_d_20_s.png,1,1,0.811435,,,,,,,,,s,3D
,,,,,,,18,female,A,2020-05-11_13h17.41.808,Remembering_Displays,2020.1.2,Win32,60,1,0,9,1,1.310405,0,8,8,18,1,Stimuli/testStimuliCube/6u_s_22_s.png,Stimuli/testStimuliCube/6u_s_22_s.png,0,9,0.63902,,,,,,,,,s,3D
,,,,,,,18,female,A,2020-05-11_13h17.41.808,Remembering_Displays,2020.1.2,Win32,60,9,1,9,1,0.87352,0,9,9,12,1,Stimuli/testStimuliCube/6u_s_19_s.png,Stimuli/testStimuliCube/6u_s_19_s.png,0,9,0.8212,,,,,,,,,s,3D
,,,,,,,18,female,A,2020-05-11_13h17.41.808,Remembering_Displays,2020.1.2,Win32,60,9,1,9,1,1.49012,0,10,10,8,1,Stimuli/testStimuliCube/6u_s_23.png,Stimuli/testStimuliCube/6u_s_23.png,0,9,0.7159,,,,,,,,,c,3D
,,,,,,,18,female,A,2020-05-11_13h17.41.808,Remembering_Displays,2020.1.2,Win32,60,1,0,9,1,0.737445,0,11,11,10,1,Stimuli/testStimuliCube/6u_s_24.png,Stimuli/testStimuliCube/6u_s_24.png,0,9,1.200485,,,,,,,,,c,3D
,,,,,,,18,female,A,2020-05-11_13h17.41.808,Remembering_Displays,2020.1.2,Win32,60,,0,1,1,0.983055,0,12,12,22,1,Stimuli/testStimuliCube/6u_s_24_s.png,Stimuli/testStimuliCube/6u_s_24_s.png,0,9,,,,,,,,,,s,3D
,,,,,,,18,female,A,2020-05-11_13h17.41.808,Remembering_Displays,2020.1.2,Win32,60,1,1,1,1,2.00052,0,13,13,23,1,Stimuli/testStimuliCube/6u_s_24_s.png,Stimuli/testStimuliCube/6u_d_24_s.png,1,1,0.86059,,,,,,,,,s,3D
,,,,,,,18,female,A,2020-05-11_13h17.41.808,Remembering_Displays,2020.1.2,Win32,60,1,1,1,0,1.530215,0,14,14,9,1,Stimuli/testStimuliCube/6u_s_23.png,Stimuli/testStimuliCube/6u_d_23.png,1,1,1.13239,,,,,,,,,c,3D
,,,,,,,18,female,A,2020-05-11_13h17.41.808,Remembering_Displays,2020.1.2,Win32,60,9,1,1,1,0.843185,0,15,15,4,1,Stimuli/testStimuliCube/6u_s_21.png,Stimuli/testStimuliCube/6u_s_21.png,0,9,0.855485,,,,,,,,,c,3D
,,,,,,,18,female,A,2020-05-11_13h17.41.808,Remembering_Displays,2020.1.2,Win32,60,1,1,1,1,1.22854,0,16,16,1,1,Stimuli/testStimuliCube/6u_s_19.png,Stimuli/testStimuliCube/6u_d_19.png,1,1,0.605295,,,,,,,,,c,3D
,,,,,,,18,female,A,2020-05-11_13h17.41.808,Remembering_Displays,2020.1.2,Win32,60,9,1,9,1,1.18559,0,17,17,0,1,Stimuli/testStimuliCube/6u_s_19.png,Stimuli/testStimuliCube/6u_s_19.png,0,9,0.697665,,,,,,,,,c,3D
,,,,,,,18,female,A,2020-05-11_13h17.41.808,Remembering_Displays,2020.1.2,Win32,60,9,0,1,1,1.184905,0,18,18,13,1,Stimuli/testStimuliCube/6u_s_19_s.png,Stimuli/testStimuliCube/6u_d_19_s.png,1,1,0.94345,,,,,,,,,s,3D
,,,,,,,18,female,A,2020-05-11_13h17.41.808,Remembering_Displays,2020.1.2,Win32,60,9,0,1,1,1.868545,0,19,19,19,1,Stimuli/testStimuliCube/6u_s_22_s.png,Stimuli/testStimuliCube/6u_d_22_s.png,1,1,0.590535,,,,,,,,,s,3D
,,,,,,,18,female,A,2020-05-11_13h17.41.808,Remembering_Displays,2020.1.2,Win32,60,1,1,1,1,2.239775,0,20,20,11,1,Stimuli/testStimuliCube/6u_s_24.png,Stimuli/testStimuliCube/6u_d_24.png,1,1,0.965295,,,,,,,,,c,3D
,,,,,,,18,female,A,2020-05-11_13h17.41.808,Remembering_Displays,2020.1.2,Win32,60,1,1,9,1,1.785905,0,21,21,3,1,Stimuli/testStimuliCube/6u_s_20.png,Stimuli/testStimuliCube/6u_d_20.png,1,1,1.114695,,,,,,,,,c,3D
,,,,,,,18,female,A,2020-05-11_13h17.41.808,Remembering_Displays,2020.1.2,Win32,60,9,1,9,1,2.035535,0,22,22,16,1,Stimuli/testStimuliCube/6u_s_21_s.png,Stimuli/testStimuliCube/6u_s_21_s.png,0,9,0.97349,,,,,,,,,s,3D
,,,,,,,18,female,A,2020-05-11_13h17.41.808,Remembering_Displays,2020.1.2,Win32,60,1,1,1,1,1.81938,0,23,23,5,1,Stimuli/testStimuliCube/6u_s_21.png,Stimuli/testStimuliCube/6u_d_21.png,1,1,0.74487,,,,,,,,,c,3D
,,,,,,,18,female,A,2020-05-11_13h17.41.808,Remembering_Displays,2020.1.2,Win32,60,,,,,,,,,,,,,,,,0,3,3,3,1,Stimuli/trialListCubes4.xlsx,Instructions/instr_19.png,Progress: 48 of 192 trials completed,,
,,,,,,,18,female,A,2020-05-11_13h17.41.808,Remembering_Displays,2020.1.2,Win32,60,1,0,9,1,1.56873,0,0,0,18,1,Stimuli/testStimuliSquare/6u_s_10_s_2D.png,Stimuli/testStimuliSquare/6u_s_10_s_2D.png,0,9,0.56203,,,,,,,,,s,2D
,,,,,,,18,female,A,2020-05-11_13h17.41.808,Remembering_Displays,2020.1.2,Win32,60,9,1,1,1,1.075715,0,1,1,22,1,Stimuli/testStimuliSquare/6u_s_12_s_2D.png,Stimuli/testStimuliSquare/6u_s_12_s_2D.png,0,9,1.163175,,,,,,,,,s,2D
,,,,,,,18,female,A,2020-05-11_13h17.41.808,Remembering_Displays,2020.1.2,Win32,60,1,1,1,1,0.870985,0,2,2,3,1,Stimuli/testStimuliSquare/6u_s_8_2D.png,Stimuli/testStimuliSquare/6u_d_8_2D.png,1,1,1.008155,,,,,,,,,c,2D
,,,,,,,18,female,A,2020-05-11_13h17.41.808,Remembering_Displays,2020.1.2,Win32,60,9,1,9,1,0.843545,0,3,3,16,1,Stimuli/testStimuliSquare/6u_s_9_s_2D.png,Stimuli/testStimuliSquare/6u_s_9_s_2D.png,0,9,1.138765,,,,,,,,,s,2D
,,,,,,,18,female,A,2020-05-11_13h17.41.808,Remembering_Displays,2020.1.2,Win32,60,1,0,1,1,0.709385,0,4,4,14,1,Stimuli/testStimuliSquare/6u_s_8_s_2D.png,Stimuli/testStimuliSquare/6u_s_8_s_2D.png,0,9,0.713715,,,,,,,,,s,2D
,,,,,,,18,female,A,2020-05-11_13h17.41.808,Remembering_Displays,2020.1.2,Win32,60,1,1,9,1,1.372035,0,5,5,13,1,Stimuli/testStimuliSquare/6u_s_7_s_2D.png,Stimuli/testStimuliSquare/6u_d_7_s_2D.png,1,1,0.172595,,,,,,,,,s,2D
,,,,,,,18,female,A,2020-05-11_13h17.41.808,Remembering_Displays,2020.1.2,Win32,60,9,1,1,1,1.06072,0,6,6,20,1,Stimuli/testStimuliSquare/6u_s_11_s_2D.png,Stimuli/testStimuliSquare/6u_s_11_s_2D.png,0,9,0.720545,,,,,,,,,s,2D
,,,,,,,18,female,A,2020-05-11_13h17.41.808,Remembering_Displays,2020.1.2,Win32,60,1,1,9,1,0.8938,0,7,7,9,1,Stimuli/testStimuliSquare/6u_s_11_2D.png,Stimuli/testStimuliSquare/6u_d_11_2D.png,1,1,1.08406,,,,,,,,,c,2D
,,,,,,,18,female,A,2020-05-11_13h17.41.808,Remembering_Displays,2020.1.2,Win32,60,1,0,1,1,0.57059,0,8,8,8,1,Stimuli/testStimuliSquare/6u_s_11_2D.png,Stimuli/testStimuliSquare/6u_s_11_2D.png,0,9,0.494895,,,,,,,,,c,2D
,,,,,,,18,female,A,2020-05-11_13h17.41.808,Remembering_Displays,2020.1.2,Win32,60,9,0,9,1,0.609945,0,9,9,11,1,Stimuli/testStimuliSquare/6u_s_12_2D.png,Stimuli/testStimuliSquare/6u_d_12_2D.png,1,1,0.78166,,,,,,,,,c,2D
,,,,,,,18,female,A,2020-05-11_13h17.41.808,Remembering_Displays,2020.1.2,Win32,60,1,1,1,1,1.119045,0,10,10,7,1,Stimuli/testStimuliSquare/6u_s_10_2D.png,Stimuli/testStimuliSquare/6u_d_10_2D.png,1,1,0.691975,,,,,,,,,c,2D
,,,,,,,18,female,A,2020-05-11_13h17.41.808,Remembering_Displays,2020.1.2,Win32,60,9,0,1,1,0.93571,0,11,11,23,1,Stimuli/testStimuliSquare/6u_s_12_s_2D.png,Stimuli/testStimuliSquare/6u_d_12_s_2D.png,1,1,0.802695,,,,,,,,,s,2D
,,,,,,,18,female,A,2020-05-11_13h17.41.808,Remembering_Displays,2020.1.2,Win32,60,9,1,9,1,0.870595,0,12,12,2,1,Stimuli/testStimuliSquare/6u_s_8_2D.png,Stimuli/testStimuliSquare/6u_s_8_2D.png,0,9,0.7603,,,,,,,,,c,2D
,,,,,,,18,female,A,2020-05-11_13h17.41.808,Remembering_Displays,2020.1.2,Win32,60,1,1,9,1,1.578255,0,13,13,1,1,Stimuli/testStimuliSquare/6u_s_7_2D.png,Stimuli/testStimuliSquare/6u_d_7_2D.png,1,1,0.632395,,,,,,,,,c,2D
,,,,,,,18,female,A,2020-05-11_13h17.41.808,Remembering_Displays,2020.1.2,Win32,60,9,0,1,0,0.475055,0,14,14,15,1,Stimuli/testStimuliSquare/6u_s_8_s_2D.png,Stimuli/testStimuliSquare/6u_d_8_s_2D.png,1,1,1.0326,,,,,,,,,s,2D
,,,,,,,18,female,A,2020-05-11_13h17.41.808,Remembering_Displays,2020.1.2,Win32,60,9,0,1,1,0.66258,0,15,15,17,1,Stimuli/testStimuliSquare/6u_s_9_s_2D.png,Stimuli/testStimuliSquare/6u_d_9_s_2D.png,1,1,0.46421,,,,,,,,,s,2D
,,,,,,,18,female,A,2020-05-11_13h17.41.808,Remembering_Displays,2020.1.2,Win32,60,9,0,9,0,1.06816,0,16,16,19,1,Stimuli/testStimuliSquare/6u_s_10_s_2D.png,Stimuli/testStimuliSquare/6u_d_10_s_2D.png,1,1,0.943175,,,,,,,,,s,2D
,,,,,,,18,female,A,2020-05-11_13h17.41.808,Remembering_Displays,2020.1.2,Win32,60,9,1,1,1,1.40861,0,17,17,0,1,Stimuli/testStimuliSquare/6u_s_7_2D.png,Stimuli/testStimuliSquare/6u_s_7_2D.png,0,9,1.012405,,,,,,,,,c,2D
,,,,,,,18,female,A,2020-05-11_13h17.41.808,Remembering_Displays,2020.1.2,Win32,60,9,1,9,1,1.37109,0,18,18,6,1,Stimuli/testStimuliSquare/6u_s_10_2D.png,Stimuli/testStimuliSquare/6u_s_10_2D.png,0,9,0.69505,,,,,,,,,c,2D
,,,,,,,18,female,A,2020-05-11_13h17.41.808,Remembering_Displays,2020.1.2,Win32,60,9,1,9,1,1.43515,0,19,19,4,1,Stimuli/testStimuliSquare/6u_s_9_2D.png,Stimuli/testStimuliSquare/6u_s_9_2D.png,0,9,0.80917,,,,,,,,,c,2D
,,,,,,,18,female,A,2020-05-11_13h17.41.808,Remembering_Displays,2020.1.2,Win32,60,9,1,9,1,0.70704,0,20,20,10,1,Stimuli/testStimuliSquare/6u_s_12_2D.png,Stimuli/testStimuliSquare/6u_s_12_2D.png,0,9,0.846755,,,,,,,,,c,2D
,,,,,,,18,female,A,2020-05-11_13h17.41.808,Remembering_Displays,2020.1.2,Win32,60,9,1,1,1,1.672125,0,21,21,12,1,Stimuli/testStimuliSquare/6u_s_7_s_2D.png,Stimuli/testStimuliSquare/6u_s_7_s_2D.png,0,9,0.846235,,,,,,,,,s,2D
,,,,,,,18,female,A,2020-05-11_13h17.41.808,Remembering_Displays,2020.1.2,Win32,60,1,1,9,1,1.585115,0,22,22,21,1,Stimuli/testStimuliSquare/6u_s_11_s_2D.png,Stimuli/testStimuliSquare/6u_d_11_s_2D.png,1,1,1.356705,,,,,,,,,s,2D
,,,,,,,18,female,A,2020-05-11_13h17.41.808,Remembering_Displays,2020.1.2,Win32,60,9,0,1,1,0.58,0,23,23,5,1,Stimuli/testStimuliSquare/6u_s_9_2D.png,Stimuli/testStimuliSquare/6u_d_9_2D.png,1,1,0.9699,,,,,,,,,c,2D
,,,,,,,18,female,A,2020-05-11_13h17.41.808,Remembering_Displays,2020.1.2,Win32,60,,,,,,,,,,,,,,,,0,4,4,4,1,Stimuli/trialListSquares2.xlsx,Instructions/instr_18.png,Progress: 72 of 192 trials completed,,
,,,,,,,18,female,A,2020-05-11_13h17.41.808,Remembering_Displays,2020.1.2,Win32,60,9,0,1,1,0.93538,0,0,0,1,1,Stimuli/testStimuliCube/6u_s_13.png,Stimuli/testStimuliCube/6u_d_13.png,1,1,0.9433,,,,,,,,,c,3D
,,,,,,,18,female,A,2020-05-11_13h17.41.808,Remembering_Displays,2020.1.2,Win32,60,1,1,1,1,0.58884,0,1,1,15,1,Stimuli/testStimuliCube/6u_s_14_s.png,Stimuli/testStimuliCube/6u_d_14_s.png,1,1,0.83323,,,,,,,,,s,3D
,,,,,,,18,female,A,2020-05-11_13h17.41.808,Remembering_Displays,2020.1.2,Win32,60,1,1,1,1,0.675465,0,2,2,5,1,Stimuli/testStimuliCube/6u_s_15.png,Stimuli/testStimuliCube/6u_d_15.png,1,1,0.84726,,,,,,,,,c,3D
,,,,,,,18,female,A,2020-05-11_13h17.41.808,Remembering_Displays,2020.1.2,Win32,60,9,1,9,1,1.952195,0,3,3,0,1,Stimuli/testStimuliCube/6u_s_13.png,Stimuli/testStimuliCube/6u_s_13.png,0,9,1.339185,,,,,,,,,c,3D
,,,,,,,18,female,A,2020-05-11_13h17.41.808,Remembering_Displays,2020.1.2,Win32,60,1,1,9,1,1.79401,0,4,4,7,1,Stimuli/testStimuliCube/6u_s_16.png,Stimuli/testStimuliCube/6u_d_16.png,1,1,0.86215,,,,,,,,,c,3D
,,,,,,,18,female,A,2020-05-11_13h17.41.808,Remembering_Displays,2020.1.2,Win32,60,9,1,1,1,1.637175,0,5,5,4,1,Stimuli/testStimuliCube/6u_s_15.png,Stimuli/testStimuliCube/6u_s_15.png,0,9,0.97918,,,,,,,,,c,3D
,,,,,,,18,female,A,2020-05-11_13h17.41.808,Remembering_Displays,2020.1.2,Win32,60,1,1,9,1,1.55926,0,6,6,21,1,Stimuli/testStimuliCube/6u_s_17_s.png,Stimuli/testStimuliCube/6u_d_17_s.png,1,1,0.616955,,,,,,,,,s,3D
,,,,,,,18,female,A,2020-05-11_13h17.41.808,Remembering_Displays,2020.1.2,Win32,60,1,1,1,0,0.98555,0,7,7,17,1,Stimuli/testStimuliCube/6u_s_15_s.png,Stimuli/testStimuliCube/6u_d_15_s.png,1,1,0.749745,,,,,,,,,s,3D
,,,,,,,18,female,A,2020-05-11_13h17.41.808,Remembering_Displays,2020.1.2,Win32,60,9,1,9,1,1.268285,0,8,8,22,1,Stimuli/testStimuliCube/6u_s_18_s.png,Stimuli/testStimuliCube/6u_s_18_s.png,0,9,0.876455,,,,,,,,,s,3D
,,,,,,,18,female,A,2020-05-11_13h17.41.808,Remembering_Displays,2020.1.2,Win32,60,9,1,1,1,0.584985,0,9,9,10,1,Stimuli/testStimuliCube/6u_s_18.png,Stimuli/testStimuliCube/6u_s_18.png,0,9,0.774305,,,,,,,,,c,3D
,,,,,,,18,female,A,2020-05-11_13h17.41.808,Remembering_Displays,2020.1.2,Win32,60,,0,9,1,1.510545,0,10,10,8,1,Stimuli/testStimuliCube/6u_s_17.png,Stimuli/testStimuliCube/6u_s_17.png,0,9,,,,,,,,,,c,3D
,,,,,,,18,female,A,2020-05-11_13h17.41.808,Remembering_Displays,2020.1.2,Win32,60,9,1,9,1,0.703145,0,11,11,20,1,Stimuli/testStimuliCube/6u_s_17_s.png,Stimuli/testStimuliCube/6u_s_17_s.png,0,9,0.66426,,,,,,,,,s,3D
,,,,,,,18,female,A,2020-05-11_13h17.41.808,Remembering_Displays,2020.1.2,Win32,60,9,1,9,1,0.576615,0,12,12,14,1,Stimuli/testStimuliCube/6u_s_14_s.png,Stimuli/testStimuliCube/6u_s_14_s.png,0,9,0.55615,,,,,,,,,s,3D
,,,,,,,18,female,A,2020-05-11_13h17.41.808,Remembering_Displays,2020.1.2,Win32,60,9,0,1,0,0.736435,0,13,13,13,1,Stimuli/testStimuliCube/6u_s_13_s.png,Stimuli/testStimuliCube/6u_d_13_s.png,1,1,0.78524,,,,,,,,,s,3D
,,,,,,,18,female,A,2020-05-11_13h17.41.808,Remembering_Displays,2020.1.2,Win32,60,9,1,1,1,0.659515,0,14,14,6,1,Stimuli/testStimuliCube/6u_s_16.png,Stimuli/testStimuliCube/6u_s_16.png,0,9,0.691365,,,,,,,,,c,3D
,,,,,,,18,female,A,2020-05-11_13h17.41.808,Remembering_Displays,2020.1.2,Win32,60,9,0,1,1,0.803525,0,15,15,23,1,Stimuli/testStimuliCube/6u_s_18_s.png,Stimuli/testStimuliCube/6u_d_18_s.png,1,1,1.137135,,,,,,,,,s,3D
,,,,,,,18,female,A,2020-05-11_13h17.41.808,Remembering_Displays,2020.1.2,Win32,60,9,1,9,1,0.87118,0,16,16,2,1,Stimuli/testStimuliCube/6u_s_14.png,Stimuli/testStimuliCube/6u_s_14.png,0,9,0.847395,,,,,,,,,c,3D
,,,,,,,18,female,A,2020-05-11_13h17.41.808,Remembering_Displays,2020.1.2,Win32,60,9,1,9,0,2.71841,0,17,17,12,1,Stimuli/testStimuliCube/6u_s_13_s.png,Stimuli/testStimuliCube/6u_s_13_s.png,0,9,0.741455,,,,,,,,,s,3D
,,,,,,,18,female,A,2020-05-11_13h17.41.808,Remembering_Displays,2020.1.2,Win32,60,9,1,1,1,1.112605,0,18,18,16,1,Stimuli/testStimuliCube/6u_s_15_s.png,Stimuli/testStimuliCube/6u_s_15_s.png,0,9,0.70514,,,,,,,,,s,3D
,,,,,,,18,female,A,2020-05-11_13h17.41.808,Remembering_Displays,2020.1.2,Win32,60,9,1,1,1,0.422195,0,19,19,18,1,Stimuli/testStimuliCube/6u_s_16_s.png,Stimuli/testStimuliCube/6u_s_16_s.png,0,9,0.70353,,,,,,,,,s,3D
,,,,,,,18,female,A,2020-05-11_13h17.41.808,Remembering_Displays,2020.1.2,Win32,60,1,1,1,1,0.53819,0,20,20,3,1,Stimuli/testStimuliCube/6u_s_14.png,Stimuli/testStimuliCube/6u_d_14.png,1,1,0.649175,,,,,,,,,c,3D
,,,,,,,18,female,A,2020-05-11_13h17.41.808,Remembering_Displays,2020.1.2,Win32,60,1,1,1,1,1.06869,0,21,21,9,1,Stimuli/testStimuliCube/6u_s_17.png,Stimuli/testStimuliCube/6u_d_17.png,1,1,0.806275,,,,,,,,,c,3D
,,,,,,,18,female,A,2020-05-11_13h17.41.808,Remembering_Displays,2020.1.2,Win32,60,9,0,1,1,1.151535,0,22,22,11,1,Stimuli/testStimuliCube/6u_s_18.png,Stimuli/testStimuliCube/6u_d_18.png,1,1,0.717665,,,,,,,,,c,3D
,,,,,,,18,female,A,2020-05-11_13h17.41.808,Remembering_Displays,2020.1.2,Win32,60,1,1,9,1,0.86935,0,23,23,19,1,Stimuli/testStimuliCube/6u_s_16_s.png,Stimuli/testStimuliCube/6u_d_16_s.png,1,1,0.827675,,,,,,,,,s,3D
,,,,,,,18,female,A,2020-05-11_13h17.41.808,Remembering_Displays,2020.1.2,Win32,60,,,,,,,,,,,,,,,,0,5,5,5,1,Stimuli/trialListCubes3.xlsx,Instructions/instr_19.png,Progress: 96 of 192 trials completed,,
,,,,,,,18,female,A,2020-05-11_13h17.41.808,Remembering_Displays,2020.1.2,Win32,60,1,0,9,1,0.95312,0,0,0,16,1,Stimuli/testStimuliSquare/6u_s_15_s_2D.png,Stimuli/testStimuliSquare/6u_s_15_s_2D.png,0,9,0.833125,,,,,,,,,s,2D
,,,,,,,18,female,A,2020-05-11_13h17.41.808,Remembering_Displays,2020.1.2,Win32,60,1,1,9,1,1.186875,0,1,1,15,1,Stimuli/testStimuliSquare/6u_s_14_s_2D.png,Stimuli/testStimuliSquare/6u_d_14_s_2D.png,1,1,0.66837,,,,,,,,,s,2D
,,,,,,,18,female,A,2020-05-11_13h17.41.808,Remembering_Displays,2020.1.2,Win32,60,9,1,1,1,0.403795,0,2,2,2,1,Stimuli/testStimuliSquare/6u_s_14_2D.png,Stimuli/testStimuliSquare/6u_s_14_2D.png,0,9,0.81464,,,,,,,,,c,2D
,,,,,,,18,female,A,2020-05-11_13h17.41.808,Remembering_Displays,2020.1.2,Win32,60,9,1,9,1,0.577025,0,3,3,4,1,Stimuli/testStimuliSquare/6u_s_15_2D.png,Stimuli/testStimuliSquare/6u_s_15_2D.png,0,9,0.65279,,,,,,,,,c,2D
,,,,,,,18,female,A,2020-05-11_13h17.41.808,Remembering_Displays,2020.1.2,Win32,60,1,0,9,1,0.920295,0,4,4,18,1,Stimuli/testStimuliSquare/6u_s_16_s_2D.png,Stimuli/testStimuliSquare/6u_s_16_s_2D.png,0,9,0.682115,,,,,,,,,s,2D
,,,,,,,18,female,A,2020-05-11_13h17.41.808,Remembering_Displays,2020.1.2,Win32,60,9,1,9,1,1.24534,0,5,5,20,1,Stimuli/testStimuliSquare/6u_s_17_s_2D.png,Stimuli/testStimuliSquare/6u_s_17_s_2D.png,0,9,0.602495,,,,,,,,,s,2D
,,,,,,,18,female,A,2020-05-11_13h17.41.808,Remembering_Displays,2020.1.2,Win32,60,9,0,9,1,0.719965,0,6,6,23,1,Stimuli/testStimuliSquare/6u_s_18_s_2D.png,Stimuli/testStimuliSquare/6u_d_18_s_2D.png,1,1,0.97189,,,,,,,,,s,2D
,,,,,,,18,female,A,2020-05-11_13h17.41.808,Remembering_Displays,2020.1.2,Win32,60,1,1,9,0,9.28612,0,7,7,9,1,Stimuli/testStimuliSquare/6u_s_17_2D.png,Stimuli/testStimuliSquare/6u_d_17_2D.png,1,1,0.82755,,,,,,,,,c,2D
,,,,,,,18,female,A,2020-05-11_13h17.41.808,Remembering_Displays,2020.1.2,Win32,60,9,1,1,1,1.43573,0,8,8,12,1,Stimuli/testStimuliSquare/6u_s_13_s_2D.png,Stimuli/testStimuliSquare/6u_s_13_s_2D.png,0,9,0.820025,,,,,,,,,s,2D
,,,,,,,18,female,A,2020-05-11_13h17.41.808,Remembering_Displays,2020.1.2,Win32,60,9,1,1,1,0.45613,0,9,9,6,1,Stimuli/testStimuliSquare/6u_s_16_2D.png,Stimuli/testStimuliSquare/6u_s_16_2D.png,0,9,0.60837,,,,,,,,,c,2D
,,,,,,,18,female,A,2020-05-11_13h17.41.808,Remembering_Displays,2020.1.2,Win32,60,9,0,1,1,0.987095,0,10,10,1,1,Stimuli/testStimuliSquare/6u_s_13_2D.png,Stimuli/testStimuliSquare/6u_d_13_2D.png,1,1,0.7137,,,,,,,,,c,2D
,,,,,,,18,female,A,2020-05-11_13h17.41.808,Remembering_Displays,2020.1.2,Win32,60,9,1,9,1,1.052485,0,11,11,22,1,Stimuli/testStimuliSquare/6u_s_18_s_2D.png,Stimuli/testStimuliSquare/6u_s_18_s_2D.png,0,9,0.74626,,,,,,,,,s,2D
,,,,,,,18,female,A,2020-05-11_13h17.41.808,Remembering_Displays,2020.1.2,Win32,60,1,1,1,1,0.809925,0,12,12,3,1,Stimuli/testStimuliSquare/6u_s_14_2D.png,Stimuli/testStimuliSquare/6u_d_14_2D.png,1,1,0.743035,,,,,,,,,c,2D
,,,,,,,18,female,A,2020-05-11_13h17.41.808,Remembering_Displays,2020.1.2,Win32,60,1,0,1,1,1.344015,0,13,13,14,1,Stimuli/testStimuliSquare/6u_s_14_s_2D.png,Stimuli/testStimuliSquare/6u_s_14_s_2D.png,0,9,0.936945,,,,,,,,,s,2D
,,,,,,,18,female,A,2020-05-11_13h17.41.808,Remembering_Displays,2020.1.2,Win32,60,1,1,1,1,1.071355,0,14,14,7,1,Stimuli/testStimuliSquare/6u_s_16_2D.png,Stimuli/testStimuliSquare/6u_d_16_2D.png,1,1,0.57821,,,,,,,,,c,2D
,,,,,,,18,female,A,2020-05-11_13h17.41.808,Remembering_Displays,2020.1.2,Win32,60,9,0,1,1,0.3879,0,15,15,13,1,Stimuli/testStimuliSquare/6u_s_13_s_2D.png,Stimuli/testStimuliSquare/6u_d_13_s_2D.png,1,1,1.05628,,,,,,,,,s,2D
,,,,,,,18,female,A,2020-05-11_13h17.41.808,Remembering_Displays,2020.1.2,Win32,60,9,1,1,1,1.189105,0,16,16,10,1,Stimuli/testStimuliSquare/6u_s_18_2D.png,Stimuli/testStimuliSquare/6u_s_18_2D.png,0,9,0.78611,,,,,,,,,c,2D
,,,,,,,18,female,A,2020-05-11_13h17.41.808,Remembering_Displays,2020.1.2,Win32,60,1,1,1,1,0.954925,0,17,17,5,1,Stimuli/testStimuliSquare/6u_s_15_2D.png,Stimuli/testStimuliSquare/6u_d_15_2D.png,1,1,0.593075,,,,,,,,,c,2D
,,,,,,,18,female,A,2020-05-11_13h17.41.808,Remembering_Displays,2020.1.2,Win32,60,9,0,1,0,0.652565,0,18,18,11,1,Stimuli/testStimuliSquare/6u_s_18_2D.png,Stimuli/testStimuliSquare/6u_d_18_2D.png,1,1,0.992645,,,,,,,,,c,2D
,,,,,,,18,female,A,2020-05-11_13h17.41.808,Remembering_Displays,2020.1.2,Win32,60,1,1,1,1,0.34148,0,19,19,19,1,Stimuli/testStimuliSquare/6u_s_16_s_2D.png,Stimuli/testStimuliSquare/6u_d_16_s_2D.png,1,1,0.757695,,,,,,,,,s,2D
,,,,,,,18,female,A,2020-05-11_13h17.41.808,Remembering_Displays,2020.1.2,Win32,60,1,1,1,1,0.977755,0,20,20,17,1,Stimuli/testStimuliSquare/6u_s_15_s_2D.png,Stimuli/testStimuliSquare/6u_d_15_s_2D.png,1,1,0.609925,,,,,,,,,s,2D
,,,,,,,18,female,A,2020-05-11_13h17.41.808,Remembering_Displays,2020.1.2,Win32,60,1,0,1,0,0.935955,0,21,21,8,1,Stimuli/testStimuliSquare/6u_s_17_2D.png,Stimuli/testStimuliSquare/6u_s_17_2D.png,0,9,0.87378,,,,,,,,,c,2D
,,,,,,,18,female,A,2020-05-11_13h17.41.808,Remembering_Displays,2020.1.2,Win32,60,9,1,1,0,0.46789,0,22,22,0,1,Stimuli/testStimuliSquare/6u_s_13_2D.png,Stimuli/testStimuliSquare/6u_s_13_2D.png,0,9,0.33694,,,,,,,,,c,2D
,,,,,,,18,female,A,2020-05-11_13h17.41.808,Remembering_Displays,2020.1.2,Win32,60,1,1,9,1,0.57849,0,23,23,21,1,Stimuli/testStimuliSquare/6u_s_17_s_2D.png,Stimuli/testStimuliSquare/6u_d_17_s_2D.png,1,1,0.63773,,,,,,,,,s,2D
,,,,,,,18,female,A,2020-05-11_13h17.41.808,Remembering_Displays,2020.1.2,Win32,60,,,,,,,,,,,,,,,,0,6,6,6,1,Stimuli/trialListSquares3.xlsx,Instructions/instr_18.png,Progress: 120 of 192 trials completed,,
,,,,,,,18,female,A,2020-05-11_13h17.41.808,Remembering_Displays,2020.1.2,Win32,60,1,1,1,1,0.418535,0,0,0,1,1,Stimuli/testStimuliCube/6u_s_7.png,Stimuli/testStimuliCube/6u_d_7.png,1,1,0.598795,,,,,,,,,c,3D
,,,,,,,18,female,A,2020-05-11_13h17.41.808,Remembering_Displays,2020.1.2,Win32,60,1,1,1,1,0.42586,0,1,1,9,1,Stimuli/testStimuliCube/6u_s_11.png,Stimuli/testStimuliCube/6u_d_11.png,1,1,0.768545,,,,,,,,,c,3D
,,,,,,,18,female,A,2020-05-11_13h17.41.808,Remembering_Displays,2020.1.2,Win32,60,9,1,9,1,1.01888,0,2,2,10,1,Stimuli/testStimuliCube/6u_s_12.png,Stimuli/testStimuliCube/6u_s_12.png,0,9,1.00407,,,,,,,,,c,3D
,,,,,,,18,female,A,2020-05-11_13h17.41.808,Remembering_Displays,2020.1.2,Win32,60,9,1,9,1,1.153435,0,3,3,8,1,Stimuli/testStimuliCube/6u_s_11.png,Stimuli/testStimuliCube/6u_s_11.png,0,9,0.767405,,,,,,,,,c,3D
,,,,,,,18,female,A,2020-05-11_13h17.41.808,Remembering_Displays,2020.1.2,Win32,60,9,0,9,1,1.75389,0,4,4,23,1,Stimuli/testStimuliCube/6u_s_12_s.png,Stimuli/testStimuliCube/6u_d_12_s.png,1,1,0.767345,,,,,,,,,s,3D
,,,,,,,18,female,A,2020-05-11_13h17.41.808,Remembering_Displays,2020.1.2,Win32,60,1,1,1,1,0.671495,0,5,5,15,1,Stimuli/testStimuliCube/6u_s_8_s.png,Stimuli/testStimuliCube/6u_d_8_s.png,1,1,0.67726,,,,,,,,,s,3D
,,,,,,,18,female,A,2020-05-11_13h17.41.808,Remembering_Displays,2020.1.2,Win32,60,1,0,1,1,0.468805,0,6,6,22,1,Stimuli/testStimuliCube/6u_s_12_s.png,Stimuli/testStimuliCube/6u_s_12_s.png,0,9,0.976175,,,,,,,,,s,3D
,,,,,,,18,female,A,2020-05-11_13h17.41.808,Remembering_Displays,2020.1.2,Win32,60,9,1,9,1,0.70441,0,7,7,2,1,Stimuli/testStimuliCube/6u_s_8.png,Stimuli/testStimuliCube/6u_s_8.png,0,9,1.07882,,,,,,,,,c,3D
,,,,,,,18,female,A,2020-05-11_13h17.41.808,Remembering_Displays,2020.1.2,Win32,60,1,1,9,1,1.174505,0,8,8,5,1,Stimuli/testStimuliCube/6u_s_9.png,Stimuli/testStimuliCube/6u_d_9.png,1,1,0.67579,,,,,,,,,c,3D
,,,,,,,18,female,A,2020-05-11_13h17.41.808,Remembering_Displays,2020.1.2,Win32,60,1,1,9,1,0.71889,0,9,9,3,1,Stimuli/testStimuliCube/6u_s_8.png,Stimuli/testStimuliCube/6u_d_8.png,1,1,0.68206,,,,,,,,,c,3D
,,,,,,,18,female,A,2020-05-11_13h17.41.808,Remembering_Displays,2020.1.2,Win32,60,9,1,1,1,0.459065,0,10,10,4,1,Stimuli/testStimuliCube/6u_s_9.png,Stimuli/testStimuliCube/6u_s_9.png,0,9,1.15354,,,,,,,,,c,3D
,,,,,,,18,female,A,2020-05-11_13h17.41.808,Remembering_Displays,2020.1.2,Win32,60,9,1,1,1,1.31886,0,11,11,0,1,Stimuli/testStimuliCube/6u_s_7.png,Stimuli/testStimuliCube/6u_s_7.png,0,9,0.653685,,,,,,,,,c,3D
,,,,,,,18,female,A,2020-05-11_13h17.41.808,Remembering_Displays,2020.1.2,Win32,60,,0,9,1,0.688135,0,12,12,14,1,Stimuli/testStimuliCube/6u_s_8_s.png,Stimuli/testStimuliCube/6u_s_8_s.png,0,9,,,,,,,,,,s,3D
,,,,,,,18,female,A,2020-05-11_13h17.41.808,Remembering_Displays,2020.1.2,Win32,60,9,1,1,1,0.42733,0,13,13,16,1,Stimuli/testStimuliCube/6u_s_9_s.png,Stimuli/testStimuliCube/6u_s_9_s.png,0,9,0.64337,,,,,,,,,s,3D
,,,,,,,18,female,A,2020-05-11_13h17.41.808,Remembering_Displays,2020.1.2,Win32,60,1,1,9,1,0.541725,0,14,14,7,1,Stimuli/testStimuliCube/6u_s_10.png,Stimuli/testStimuliCube/6u_d_10.png,1,1,0.58452,,,,,,,,,c,3D
,,,,,,,18,female,A,2020-05-11_13h17.41.808,Remembering_Displays,2020.1.2,Win32,60,1,1,1,1,0.52067,0,15,15,11,1,Stimuli/testStimuliCube/6u_s_12.png,Stimuli/testStimuliCube/6u_d_12.png,1,1,0.71127,,,,,,,,,c,3D
,,,,,,,18,female,A,2020-05-11_13h17.41.808,Remembering_Displays,2020.1.2,Win32,60,1,1,9,1,0.59411,0,16,16,19,1,Stimuli/testStimuliCube/6u_s_10_s.png,Stimuli/testStimuliCube/6u_d_10_s.png,1,1,0.69425,,,,,,,,,s,3D
,,,,,,,18,female,A,2020-05-11_13h17.41.808,Remembering_Displays,2020.1.2,Win32,60,9,1,1,1,0.73564,0,17,17,18,1,Stimuli/testStimuliCube/6u_s_10_s.png,Stimuli/testStimuliCube/6u_s_10_s.png,0,9,0.767115,,,,,,,,,s,3D
,,,,,,,18,female,A,2020-05-11_13h17.41.808,Remembering_Displays,2020.1.2,Win32,60,9,1,9,1,1.191385,0,18,18,6,1,Stimuli/testStimuliCube/6u_s_10.png,Stimuli/testStimuliCube/6u_s_10.png,0,9,0.682235,,,,,,,,,c,3D
,,,,,,,18,female,A,2020-05-11_13h17.41.808,Remembering_Displays,2020.1.2,Win32,60,9,1,9,1,0.89572,0,19,19,12,1,Stimuli/testStimuliCube/6u_s_7_s.png,Stimuli/testStimuliCube/6u_s_7_s.png,0,9,0.44492,,,,,,,,,s,3D
,,,,,,,18,female,A,2020-05-11_13h17.41.808,Remembering_Displays,2020.1.2,Win32,60,1,1,9,1,1.03598,0,20,20,13,1,Stimuli/testStimuliCube/6u_s_7_s.png,Stimuli/testStimuliCube/6u_d_7_s.png,1,1,0.611995,,,,,,,,,s,3D
,,,,,,,18,female,A,2020-05-11_13h17.41.808,Remembering_Displays,2020.1.2,Win32,60,9,1,9,1,0.684935,0,21,21,20,1,Stimuli/testStimuliCube/6u_s_11_s.png,Stimuli/testStimuliCube/6u_s_11_s.png,0,9,0.79312,,,,,,,,,s,3D
,,,,,,,18,female,A,2020-05-11_13h17.41.808,Remembering_Displays,2020.1.2,Win32,60,1,1,9,0,1.52691,0,22,22,21,1,Stimuli/testStimuliCube/6u_s_11_s.png,Stimuli/testStimuliCube/6u_d_11_s.png,1,1,0.71396,,,,,,,,,s,3D
,,,,,,,18,female,A,2020-05-11_13h17.41.808,Remembering_Displays,2020.1.2,Win32,60,9,0,9,1,2.143435,0,23,23,17,1,Stimuli/testStimuliCube/6u_s_9_s.png,Stimuli/testStimuliCube/6u_d_9_s.png,1,1,0.85955,,,,,,,,,s,3D
,,,,,,,18,female,A,2020-05-11_13h17.41.808,Remembering_Displays,2020.1.2,Win32,60,,,,,,,,,,,,,,,,0,7,7,7,1,Stimuli/trialListCubes2.xlsx,Instructions/instr_19.png,Progress: 144 of 192 trials completed,,
,,,,,,,18,female,A,2020-05-11_13h17.41.808,Remembering_Displays,2020.1.2,Win32,60,1,1,1,1,1.03532,0,0,0,17,1,Stimuli/testStimuliSquare/6u_s_21_s_2D.png,Stimuli/testStimuliSquare/6u_d_21_s_2D.png,1,1,0.829505,,,,,,,,,s,2D
,,,,,,,18,female,A,2020-05-11_13h17.41.808,Remembering_Displays,2020.1.2,Win32,60,9,1,9,1,0.56803,0,1,1,4,1,Stimuli/testStimuliSquare/6u_s_21_2D.png,Stimuli/testStimuliSquare/6u_s_21_2D.png,0,9,0.760525,,,,,,,,,c,2D
,,,,,,,18,female,A,2020-05-11_13h17.41.808,Remembering_Displays,2020.1.2,Win32,60,1,1,9,0,0.64372,0,2,2,15,1,Stimuli/testStimuliSquare/6u_s_20_s_2D.png,Stimuli/testStimuliSquare/6u_d_20_s_2D.png,1,1,0.551535,,,,,,,,,s,2D
,,,,,,,18,female,A,2020-05-11_13h17.41.808,Remembering_Displays,2020.1.2,Win32,60,1,1,1,1,0.574115,0,3,3,5,1,Stimuli/testStimuliSquare/6u_s_21_2D.png,Stimuli/testStimuliSquare/6u_d_21_2D.png,1,1,0.570355,,,,,,,,,c,2D
,,,,,,,18,female,A,2020-05-11_13h17.41.808,Remembering_Displays,2020.1.2,Win32,60,1,1,1,1,0.49024,0,4,4,7,1,Stimuli/testStimuliSquare/6u_s_22_2D.png,Stimuli/testStimuliSquare/6u_d_22_2D.png,1,1,0.83776,,,,,,,,,c,2D
,,,,,,,18,female,A,2020-05-11_13h17.41.808,Remembering_Displays,2020.1.2,Win32,60,9,1,1,1,0.81895,0,5,5,20,1,Stimuli/testStimuliSquare/6u_s_23_s_2D.png,Stimuli/testStimuliSquare/6u_s_23_s_2D.png,0,9,0.860345,,,,,,,,,s,2D
,,,,,,,18,female,A,2020-05-11_13h17.41.808,Remembering_Displays,2020.1.2,Win32,60,9,0,9,1,0.828685,0,6,6,21,1,Stimuli/testStimuliSquare/6u_s_23_s_2D.png,Stimuli/testStimuliSquare/6u_d_23_s_2D.png,1,1,0.632485,,,,,,,,,s,2D
,,,,,,,18,female,A,2020-05-11_13h17.41.808,Remembering_Displays,2020.1.2,Win32,60,9,1,9,0,1.72756,0,7,7,14,1,Stimuli/testStimuliSquare/6u_s_20_s_2D.png,Stimuli/testStimuliSquare/6u_s_20_s_2D.png,0,9,0.686715,,,,,,,,,s,2D
,,,,,,,18,female,A,2020-05-11_13h17.41.808,Remembering_Displays,2020.1.2,Win32,60,9,1,1,1,0.57024,0,8,8,12,1,Stimuli/testStimuliSquare/6u_s_19_s_2D.png,Stimuli/testStimuliSquare/6u_s_19_s_2D.png,0,9,0.79353,,,,,,,,,s,2D
,,,,,,,18,female,A,2020-05-11_13h17.41.808,Remembering_Displays,2020.1.2,Win32,60,9,1,1,1,0.968555,0,9,9,0,1,Stimuli/testStimuliSquare/6u_s_19_2D.png,Stimuli/testStimuliSquare/6u_s_19_2D.png,0,9,0.70683,,,,,,,,,c,2D
,,,,,,,18,female,A,2020-05-11_13h17.41.808,Remembering_Displays,2020.1.2,Win32,60,1,1,1,1,0.42355,0,10,10,19,1,Stimuli/testStimuliSquare/6u_s_22_s_2D.png,Stimuli/testStimuliSquare/6u_d_22_s_2D.png,1,1,0.91788,,,,,,,,,s,2D
,,,,,,,18,female,A,2020-05-11_13h17.41.808,Remembering_Displays,2020.1.2,Win32,60,1,1,1,1,0.509845,0,11,11,13,1,Stimuli/testStimuliSquare/6u_s_19_s_2D.png,Stimuli/testStimuliSquare/6u_d_19_s_2D.png,1,1,0.52898,,,,,,,,,s,2D
,,,,,,,18,female,A,2020-05-11_13h17.41.808,Remembering_Displays,2020.1.2,Win32,60,9,0,1,0,0.339095,0,12,12,9,1,Stimuli/testStimuliSquare/6u_s_23_2D.png,Stimuli/testStimuliSquare/6u_d_23_2D.png,1,1,0.68257,,,,,,,,,c,2D
,,,,,,,18,female,A,2020-05-11_13h17.41.808,Remembering_Displays,2020.1.2,Win32,60,9,1,9,1,0.7197,0,13,13,8,1,Stimuli/testStimuliSquare/6u_s_23_2D.png,Stimuli/testStimuliSquare/6u_s_23_2D.png,0,9,1.06082,,,,,,,,,c,2D
,,,,,,,18,female,A,2020-05-11_13h17.41.808,Remembering_Displays,2020.1.2,Win32,60,9,1,1,1,1.02041,0,14,14,6,1,Stimuli/testStimuliSquare/6u_s_22_2D.png,Stimuli/testStimuliSquare/6u_s_22_2D.png,0,9,0.565625,,,,,,,,,c,2D
,,,,,,,18,female,A,2020-05-11_13h17.41.808,Remembering_Displays,2020.1.2,Win32,60,9,1,1,1,0.590865,0,15,15,16,1,Stimuli/testStimuliSquare/6u_s_21_s_2D.png,Stimuli/testStimuliSquare/6u_s_21_s_2D.png,0,9,0.51031,,,,,,,,,s,2D
,,,,,,,18,female,A,2020-05-11_13h17.41.808,Remembering_Displays,2020.1.2,Win32,60,1,0,9,1,0.90179,0,16,16,2,1,Stimuli/testStimuliSquare/6u_s_20_2D.png,Stimuli/testStimuliSquare/6u_s_20_2D.png,0,9,0.638305,,,,,,,,,c,2D
,,,,,,,18,female,A,2020-05-11_13h17.41.808,Remembering_Displays,2020.1.2,Win32,60,9,1,9,1,1.00604,0,17,17,10,1,Stimuli/testStimuliSquare/6u_s_24_2D.png,Stimuli/testStimuliSquare/6u_s_24_2D.png,0,9,0.75679,,,,,,,,,c,2D
,,,,,,,18,female,A,2020-05-11_13h17.41.808,Remembering_Displays,2020.1.2,Win32,60,1,0,1,1,0.98547,0,18,18,18,1,Stimuli/testStimuliSquare/6u_s_22_s_2D.png,Stimuli/testStimuliSquare/6u_s_22_s_2D.png,0,9,1.1304,,,,,,,,,s,2D
,,,,,,,18,female,A,2020-05-11_13h17.41.808,Remembering_Displays,2020.1.2,Win32,60,1,1,9,1,0.556165,0,19,19,11,1,Stimuli/testStimuliSquare/6u_s_24_2D.png,Stimuli/testStimuliSquare/6u_d_24_2D.png,1,1,0.86114,,,,,,,,,c,2D
,,,,,,,18,female,A,2020-05-11_13h17.41.808,Remembering_Displays,2020.1.2,Win32,60,1,1,9,1,0.63555,0,20,20,3,1,Stimuli/testStimuliSquare/6u_s_20_2D.png,Stimuli/testStimuliSquare/6u_d_20_2D.png,1,1,0.49628,,,,,,,,,c,2D
,,,,,,,18,female,A,2020-05-11_13h17.41.808,Remembering_Displays,2020.1.2,Win32,60,9,0,9,1,0.80317,0,21,21,1,1,Stimuli/testStimuliSquare/6u_s_19_2D.png,Stimuli/testStimuliSquare/6u_d_19_2D.png,1,1,0.96268,,,,,,,,,c,2D
,,,,,,,18,female,A,2020-05-11_13h17.41.808,Remembering_Displays,2020.1.2,Win32,60,9,1,1,1,0.353905,0,22,22,22,1,Stimuli/testStimuliSquare/6u_s_24_s_2D.png,Stimuli/testStimuliSquare/6u_s_24_s_2D.png,0,9,0.83469,,,,,,,,,s,2D
,,,,,,,18,female,A,2020-05-11_13h17.41.808,Remembering_Displays,2020.1.2,Win32,60,1,1,9,0,0.55888,0,23,23,23,1,Stimuli/testStimuliSquare/6u_s_24_s_2D.png,Stimuli/testStimuliSquare/6u_d_24_s_2D.png,1,1,0.90097,,,,,,,,,s,2D
,,,,,,,18,female,A,2020-05-11_13h17.41.808,Remembering_Displays,2020.1.2,Win32,60,,,,,,,,,,,,,,,,0,8,8,8,1,Stimuli/trialListSquares4.xlsx,Instructions/instr_18.png,Progress: 168 of 192 trials completed,,
,,,,,,,18,female,A,2020-05-11_13h17.41.808,Remembering_Displays,2020.1.2,Win32,60,1,1,1,1,0.68491,0,0,0,11,1,Stimuli/testStimuliCube/6u_s_6.png,Stimuli/testStimuliCube/6u_d_6.png,1,1,0.70037,,,,,,,,,c,3D
,,,,,,,18,female,A,2020-05-11_13h17.41.808,Remembering_Displays,2020.1.2,Win32,60,1,0,9,1,1.40511,0,1,1,16,1,Stimuli/testStimuliCube/6u_s_3_s.png,Stimuli/testStimuliCube/6u_s_3_s.png,0,9,0.569555,,,,,,,,,s,3D
,,,,,,,18,female,A,2020-05-11_13h17.41.808,Remembering_Displays,2020.1.2,Win32,60,9,1,1,0,0.56099,0,2,2,20,1,Stimuli/testStimuliCube/6u_s_5_s.png,Stimuli/testStimuliCube/6u_s_5_s.png,0,9,0.683095,,,,,,,,,s,3D
,,,,,,,18,female,A,2020-05-11_13h17.41.808,Remembering_Displays,2020.1.2,Win32,60,9,0,1,1,1.03921,0,3,3,3,1,Stimuli/testStimuliCube/6u_s_2.png,Stimuli/testStimuliCube/6u_d_2.png,1,1,0.63533,,,,,,,,,c,3D
,,,,,,,18,female,A,2020-05-11_13h17.41.808,Remembering_Displays,2020.1.2,Win32,60,9,1,9,1,0.63845,0,4,4,10,1,Stimuli/testStimuliCube/6u_s_6.png,Stimuli/testStimuliCube/6u_s_6.png,0,9,0.63932,,,,,,,,,c,3D
,,,,,,,18,female,A,2020-05-11_13h17.41.808,Remembering_Displays,2020.1.2,Win32,60,9,0,9,1,0.701945,0,5,5,9,1,Stimuli/testStimuliCube/6u_s_5.png,Stimuli/testStimuliCube/6u_d_5.png,1,1,0.85728,,,,,,,,,c,3D
,,,,,,,18,female,A,2020-05-11_13h17.41.808,Remembering_Displays,2020.1.2,Win32,60,1,1,1,1,0.55328,0,6,6,1,1,Stimuli/testStimuliCube/6u_s_1.png,Stimuli/testStimuliCube/6u_d_1.png,1,1,0.64133,,,,,,,,,c,3D
,,,,,,,18,female,A,2020-05-11_13h17.41.808,Remembering_Displays,2020.1.2,Win32,60,9,1,1,1,0.403405,0,7,7,22,1,Stimuli/testStimuliCube/6u_s_6_s.png,Stimuli/testStimuliCube/6u_s_6_s.png,0,9,0.652585,,,,,,,,,s,3D
,,,,,,,18,female,A,2020-05-11_13h17.41.808,Remembering_Displays,2020.1.2,Win32,60,1,1,1,1,0.792175,0,8,8,5,1,Stimuli/testStimuliCube/6u_s_3.png,Stimuli/testStimuliCube/6u_d_3.png,1,1,0.743365,,,,,,,,,c,3D
,,,,,,,18,female,A,2020-05-11_13h17.41.808,Remembering_Displays,2020.1.2,Win32,60,9,1,1,1,0.338615,0,9,9,18,1,Stimuli/testStimuliCube/6u_s_4_s.png,Stimuli/testStimuliCube/6u_s_4_s.png,0,9,0.73331,,,,,,,,,s,3D
,,,,,,,18,female,A,2020-05-11_13h17.41.808,Remembering_Displays,2020.1.2,Win32,60,1,0,1,1,1.21564,0,10,10,14,1,Stimuli/testStimuliCube/6u_s_2_s.png,Stimuli/testStimuliCube/6u_s_2_s.png,0,9,0.699115,,,,,,,,,s,3D
,,,,,,,18,female,A,2020-05-11_13h17.41.808,Remembering_Displays,2020.1.2,Win32,60,9,1,1,1,0.64474,0,11,11,12,1,Stimuli/testStimuliCube/6u_s_1_s.png,Stimuli/testStimuliCube/6u_s_1_s.png,0,9,0.6981,,,,,,,,,s,3D
,,,,,,,18,female,A,2020-05-11_13h17.41.808,Remembering_Displays,2020.1.2,Win32,60,9,1,1,1,0.50396,0,12,12,8,1,Stimuli/testStimuliCube/6u_s_5.png,Stimuli/testStimuliCube/6u_s_5.png,0,9,0.71278,,,,,,,,,c,3D
,,,,,,,18,female,A,2020-05-11_13h17.41.808,Remembering_Displays,2020.1.2,Win32,60,9,1,1,1,0.6684,0,13,13,0,1,Stimuli/testStimuliCube/6u_s_1.png,Stimuli/testStimuliCube/6u_s_1.png,0,9,0.666555,,,,,,,,,c,3D
,,,,,,,18,female,A,2020-05-11_13h17.41.808,Remembering_Displays,2020.1.2,Win32,60,1,1,9,1,1.08233,0,14,14,23,1,Stimuli/testStimuliCube/6u_s_6_s.png,Stimuli/testStimuliCube/6u_d_6_s.png,1,1,0.76608,,,,,,,,,s,3D
,,,,,,,18,female,A,2020-05-11_13h17.41.808,Remembering_Displays,2020.1.2,Win32,60,1,1,9,1,0.55214,0,15,15,17,1,Stimuli/testStimuliCube/6u_s_3_s.png,Stimuli/testStimuliCube/6u_d_3_s.png,1,1,0.59748,,,,,,,,,s,3D
,,,,,,,18,female,A,2020-05-11_13h17.41.808,Remembering_Displays,2020.1.2,Win32,60,9,0,9,1,0.88944,0,16,16,21,1,Stimuli/testStimuliCube/6u_s_5_s.png,Stimuli/testStimuliCube/6u_d_5_s.png,1,1,0.613185,,,,,,,,,s,3D
,,,,,,,18,female,A,2020-05-11_13h17.41.808,Remembering_Displays,2020.1.2,Win32,60,9,1,1,1,0.735885,0,17,17,2,1,Stimuli/testStimuliCube/6u_s_2.png,Stimuli/testStimuliCube/6u_s_2.png,0,9,0.515295,,,,,,,,,c,3D
,,,,,,,18,female,A,2020-05-11_13h17.41.808,Remembering_Displays,2020.1.2,Win32,60,9,0,9,1,0.47253,0,18,18,13,1,Stimuli/testStimuliCube/6u_s_1_s.png,Stimuli/testStimuliCube/6u_d_1_s.png,1,1,0.93795,,,,,,,,,s,3D
,,,,,,,18,female,A,2020-05-11_13h17.41.808,Remembering_Displays,2020.1.2,Win32,60,1,1,9,0,0.591535,0,19,19,19,1,Stimuli/testStimuliCube/6u_s_4_s.png,Stimuli/testStimuliCube/6u_d_4_s.png,1,1,0.63032,,,,,,,,,s,3D
,,,,,,,18,female,A,2020-05-11_13h17.41.808,Remembering_Displays,2020.1.2,Win32,60,1,1,1,1,0.77496,0,20,20,15,1,Stimuli/testStimuliCube/6u_s_2_s.png,Stimuli/testStimuliCube/6u_d_2_s.png,1,1,0.64659,,,,,,,,,s,3D
,,,,,,,18,female,A,2020-05-11_13h17.41.808,Remembering_Displays,2020.1.2,Win32,60,1,0,1,1,0.71832,0,21,21,4,1,Stimuli/testStimuliCube/6u_s_3.png,Stimuli/testStimuliCube/6u_s_3.png,0,9,0.842105,,,,,,,,,c,3D
,,,,,,,18,female,A,2020-05-11_13h17.41.808,Remembering_Displays,2020.1.2,Win32,60,9,1,1,1,0.620345,0,22,22,6,1,Stimuli/testStimuliCube/6u_s_4.png,Stimuli/testStimuliCube/6u_s_4.png,0,9,0.60781,,,,,,,,,c,3D
,,,,,,,18,female,A,2020-05-11_13h17.41.808,Remembering_Displays,2020.1.2,Win32,60,1,1,1,1,0.81926,0,23,23,7,1,Stimuli/testStimuliCube/6u_s_4.png,Stimuli/testStimuliCube/6u_d_4.png,1,1,0.868525,,,,,,,,,c,3D