instr_Loop.thisRepN,instr_Loop.thisTrialN,instr_Loop.thisN,instr_Loop.thisIndex,instr_Loop.ran,instructionImage,time,age,sex (female/male),order,date,expName,psychopyVersion,OS,frameRate,struc_judge_respond.keys,struc_judge_respond.corr,struc_judge_respond.rt,dual_respond.keys,dual_respond.corr,dual_respond.rt,trials.thisRepN,trials.thisTrialN,trials.thisN,trials.thisIndex,trials.ran,stim1,stim2,isAnyChange,corrAns,selectBlock.thisRepN,selectBlock.thisTrialN,selectBlock.thisN,selectBlock.thisIndex,selectBlock.ran,condsFile,condsImage,remaining,connected,dimensionality
0,0,0,0,1,Instructions/consent.png,3,18,female,A,2020-05-11_17h13.44.075,Remembering_Displays,2020.1.2,MacIntel,60,,,,,,,,,,,,,,,,,,,,,,,,,
0,1,1,1,1,Instructions/instr_1.png,5,18,female,A,2020-05-11_17h13.44.075,Remembering_Displays,2020.1.2,MacIntel,60,,,,,,,,,,,,,,,,,,,,,,,,,
0,2,2,2,1,Instructions/instr_2.png,3,18,female,A,2020-05-11_17h13.44.075,Remembering_Displays,2020.1.2,MacIntel,60,,,,,,,,,,,,,,,,,,,,,,,,,
0,3,3,3,1,Instructions/instr_3.png,5,18,female,A,2020-05-11_17h13.44.075,Remembering_Displays,2020.1.2,MacIntel,60,,,,,,,,,,,,,,,,,,,,,,,,,
0,4,4,4,1,Instructions/instr_4.png,1,18,female,A,2020-05-11_17h13.44.075,Remembering_Displays,2020.1.2,MacIntel,60,,,,,,,,,,,,,,,,,,,,,,,,,
0,5,5,5,1,Instructions/instr_5.png,1,18,female,A,2020-05-11_17h13.44.075,Remembering_Displays,2020.1.2,MacIntel,60,,,,,,,,,,,,,,,,,,,,,,,,,
0,6,6,6,1,Instructions/instr_6.png,1,18,female,A,2020-05-11_17h13.44.075,Remembering_Displays,2020.1.2,MacIntel,60,,,,,,,,,,,,,,,,,,,,,,,,,
0,7,7,7,1,Instructions/instr_7.png,1,18,female,A,2020-05-11_17h13.44.075,Remembering_Displays,2020.1.2,MacIntel,60,,,,,,,,,,,,,,,,,,,,,,,,,
0,8,8,8,1,Instructions/instr_8.png,3,18,female,A,2020-05-11_17h13.44.075,Remembering_Displays,2020.1.2,MacIntel,60,,,,,,,,,,,,,,,,,,,,,,,,,
0,9,9,9,1,Instructions/instr_9.png,3,18,female,A,2020-05-11_17h13.44.075,Remembering_Displays,2020.1.2,MacIntel,60,,,,,,,,,,,,,,,,,,,,,,,,,
0,10,10,10,1,Instructions/instr_10.png,3,18,female,A,2020-05-11_17h13.44.075,Remembering_Displays,2020.1.2,MacIntel,60,,,,,,,,,,,,,,,,,,,,,,,,,
0,11,11,11,1,Instructions/instr_11.png,3,18,female,A,2020-05-11_17h13.44.075,Remembering_Displays,2020.1.2,MacIntel,60,,,,,,,,,,,,,,,,,,,,,,,,,
0,12,12,12,1,Instructions/instr_12.png,3,18,female,A,2020-05-11_17h13.44.075,Remembering_Displays,2020.1.2,MacIntel,60,,,,,,,,,,,,,,,,,,,,,,,,,
0,13,13,13,1,Instructions/instr_13.png,3,18,female,A,2020-05-11_17h13.44.075,Remembering_Displays,2020.1.2,MacIntel,60,,,,,,,,,,,,,,,,,,,,,,,,,
0,14,14,14,1,Instructions/instr_14.png,3,18,female,A,2020-05-11_17h13.44.075,Remembering_Displays,2020.1.2,MacIntel,60,,,,,,,,,,,,,,,,,,,,,,,,,
0,15,15,15,1,Instructions/instr_15.png,3,18,female,A,2020-05-11_17h13.44.075,Remembering_Displays,2020.1.2,MacIntel,60,,,,,,,,,,,,,,,,,,,,,,,,,
0,16,16,16,1,Instructions/instr_16.png,5,18,female,A,2020-05-11_17h13.44.075,Remembering_Displays,2020.1.2,MacIntel,60,,,,,,,,,,,,,,,,,,,,,,,,,
,,,,,,,18,female,A,2020-05-11_17h13.44.075,Remembering_Displays,2020.1.2,MacIntel,60,9,1,1.03588,1,1,0.76873,0,0,0,5,1,Stimuli/practiceStimuliSquare/practice2_s.png,Stimuli/practiceStimuliSquare/practice2_s.png,0,9,,,,,,,,,,
,,,,,,,18,female,A,2020-05-11_17h13.44.075,Remembering_Displays,2020.1.2,MacIntel,60,1,0,0.885305,1,1,1.684185,0,1,1,0,1,Stimuli/practiceStimuliSquare/practice1_s.png,Stimuli/practiceStimuliSquare/practice1_s.png,0,9,,,,,,,,,,
,,,,,,,18,female,A,2020-05-11_17h13.44.075,Remembering_Displays,2020.1.2,MacIntel,60,1,1,0.87812,1,1,1.1683,0,2,2,4,1,Stimuli/practiceStimuliSquare/practice1_s.png,Stimuli/practiceStimuliSquare/practice1_d.png,1,1,,,,,,,,,,
,,,,,,,18,female,A,2020-05-11_17h13.44.075,Remembering_Displays,2020.1.2,MacIntel,60,9,1,1.371245,9,1,0.651475,0,3,3,2,1,Stimuli/practiceStimuliSquare/practice3_s.png,Stimuli/practiceStimuliSquare/practice3_s.png,0,9,,,,,,,,,,
,,,,,,,18,female,A,2020-05-11_17h13.44.075,Remembering_Displays,2020.1.2,MacIntel,60,1,1,0.932465,9,0,1.41795,0,4,4,1,1,Stimuli/practiceStimuliSquare/practice2_s.png,Stimuli/practiceStimuliSquare/practice2_d.png,1,1,,,,,,,,,,
,,,,,,,18,female,A,2020-05-11_17h13.44.075,Remembering_Displays,2020.1.2,MacIntel,60,9,1,1.11948,9,1,1.805505,0,5,5,7,1,Stimuli/practiceStimuliSquare/practice4_s.png,Stimuli/practiceStimuliSquare/practice4_s.png,0,9,,,,,,,,,,
,,,,,,,18,female,A,2020-05-11_17h13.44.075,Remembering_Displays,2020.1.2,MacIntel,60,1,1,0.777345,1,0,1.101475,0,6,6,3,1,Stimuli/practiceStimuliSquare/practice4_s.png,Stimuli/practiceStimuliSquare/practice4_d.png,1,1,,,,,,,,,,
,,,,,,,18,female,A,2020-05-11_17h13.44.075,Remembering_Displays,2020.1.2,MacIntel,60,9,0,0.85058,1,1,2.17397,0,7,7,6,1,Stimuli/practiceStimuliSquare/practice3_s.png,Stimuli/practiceStimuliSquare/practice3_d.png,1,1,,,,,,,,,,
,,,,,,,18,female,A,2020-05-11_17h13.44.075,Remembering_Displays,2020.1.2,MacIntel,60,,,,,,,,,,,,,,,,0,0,0,0,1,Stimuli/practiceListSquares.xlsx,Instructions/instr_practice_A.png,Practice trials completed,,
,,,,,,,18,female,A,2020-05-11_17h13.44.075,Remembering_Displays,2020.1.2,MacIntel,60,1,1,0.65142,1,0,2.2679,0,0,0,3,1,Stimuli/testStimuliSquare/6u_s_2_2D.png,Stimuli/testStimuliSquare/6u_d_2_2D.png,1,1,,,,,,,,,c,2D
,,,,,,,18,female,A,2020-05-11_17h13.44.075,Remembering_Displays,2020.1.2,MacIntel,60,1,1,0.9466,9,1,1.224285,0,1,1,15,1,Stimuli/testStimuliSquare/6u_s_2_s_2D.png,Stimuli/testStimuliSquare/6u_d_2_s_2D.png,1,1,,,,,,,,,s,2D
,,,,,,,18,female,A,2020-05-11_17h13.44.075,Remembering_Displays,2020.1.2,MacIntel,60,1,1,1.20927,1,1,0.850855,0,2,2,21,1,Stimuli/testStimuliSquare/6u_s_5_s_2D.png,Stimuli/testStimuliSquare/6u_d_5_s_2D.png,1,1,,,,,,,,,s,2D
,,,,,,,18,female,A,2020-05-11_17h13.44.075,Remembering_Displays,2020.1.2,MacIntel,60,9,1,0.87075,1,1,1.951055,0,3,3,12,1,Stimuli/testStimuliSquare/6u_s_1_s_2D.png,Stimuli/testStimuliSquare/6u_s_1_s_2D.png,0,9,,,,,,,,,s,2D
,,,,,,,18,female,A,2020-05-11_17h13.44.075,Remembering_Displays,2020.1.2,MacIntel,60,9,1,0.95287,1,1,0.81758,0,4,4,22,1,Stimuli/testStimuliSquare/6u_s_6_s_2D.png,Stimuli/testStimuliSquare/6u_s_6_s_2D.png,0,9,,,,,,,,,s,2D
,,,,,,,18,female,A,2020-05-11_17h13.44.075,Remembering_Displays,2020.1.2,MacIntel,60,,0,,9,0,1.152295,0,5,5,18,1,Stimuli/testStimuliSquare/6u_s_4_s_2D.png,Stimuli/testStimuliSquare/6u_s_4_s_2D.png,0,9,,,,,,,,,s,2D
,,,,,,,18,female,A,2020-05-11_17h13.44.075,Remembering_Displays,2020.1.2,MacIntel,60,9,1,0.871685,1,1,0.96884,0,6,6,2,1,Stimuli/testStimuliSquare/6u_s_2_2D.png,Stimuli/testStimuliSquare/6u_s_2_2D.png,0,9,,,,,,,,,c,2D
,,,,,,,18,female,A,2020-05-11_17h13.44.075,Remembering_Displays,2020.1.2,MacIntel,60,9,1,0.67096,9,1,0.667695,0,7,7,8,1,Stimuli/testStimuliSquare/6u_s_5_2D.png,Stimuli/testStimuliSquare/6u_s_5_2D.png,0,9,,,,,,,,,c,2D
,,,,,,,18,female,A,2020-05-11_17h13.44.075,Remembering_Displays,2020.1.2,MacIntel,60,9,1,0.703915,9,1,0.73458,0,8,8,0,1,Stimuli/testStimuliSquare/6u_s_1_2D.png,Stimuli/testStimuliSquare/6u_s_1_2D.png,0,9,,,,,,,,,c,2D
,,,,,,,18,female,A,2020-05-11_17h13.44.075,Remembering_Displays,2020.1.2,MacIntel,60,1,1,0.70536,1,1,0.870785,0,9,9,5,1,Stimuli/testStimuliSquare/6u_s_3_2D.png,Stimuli/testStimuliSquare/6u_d_3_2D.png,1,1,,,,,,,,,c,2D
,,,,,,,18,female,A,2020-05-11_17h13.44.075,Remembering_Displays,2020.1.2,MacIntel,60,1,1,1.320805,1,1,1.417215,0,10,10,1,1,Stimuli/testStimuliSquare/6u_s_1_2D.png,Stimuli/testStimuliSquare/6u_d_1_2D.png,1,1,,,,,,,,,c,2D
,,,,,,,18,female,A,2020-05-11_17h13.44.075,Remembering_Displays,2020.1.2,MacIntel,60,1,1,0.82904,9,1,0.940475,0,11,11,19,1,Stimuli/testStimuliSquare/6u_s_4_s_2D.png,Stimuli/testStimuliSquare/6u_d_4_s_2D.png,1,1,,,,,,,,,s,2D
,,,,,,,18,female,A,2020-05-11_17h13.44.075,Remembering_Displays,2020.1.2,MacIntel,60,9,1,0.8687,9,1,1.201305,0,12,12,6,1,Stimuli/testStimuliSquare/6u_s_4_2D.png,Stimuli/testStimuliSquare/6u_s_4_2D.png,0,9,,,,,,,,,c,2D
,,,,,,,18,female,A,2020-05-11_17h13.44.075,Remembering_Displays,2020.1.2,MacIntel,60,9,0,0.87677,9,1,1.91826,0,13,13,13,1,Stimuli/testStimuliSquare/6u_s_1_s_2D.png,Stimuli/testStimuliSquare/6u_d_1_s_2D.png,1,1,,,,,,,,,s,2D
,,,,,,,18,female,A,2020-05-11_17h13.44.075,Remembering_Displays,2020.1.2,MacIntel,60,1,1,1.018955,1,1,1.668445,0,14,14,7,1,Stimuli/testStimuliSquare/6u_s_4_2D.png,Stimuli/testStimuliSquare/6u_d_4_2D.png,1,1,,,,,,,,,c,2D
,,,,,,,18,female,A,2020-05-11_17h13.44.075,Remembering_Displays,2020.1.2,MacIntel,60,1,1,0.7338,9,1,0.51832,0,15,15,11,1,Stimuli/testStimuliSquare/6u_s_6_2D.png,Stimuli/testStimuliSquare/6u_d_6_2D.png,1,1,,,,,,,,,c,2D
,,,,,,,18,female,A,2020-05-11_17h13.44.075,Remembering_Displays,2020.1.2,MacIntel,60,1,1,0.844865,1,1,1.61697,0,16,16,17,1,Stimuli/testStimuliSquare/6u_s_3_s_2D.png,Stimuli/testStimuliSquare/6u_d_3_s_2D.png,1,1,,,,,,,,,s,2D
,,,,,,,18,female,A,2020-05-11_17h13.44.075,Remembering_Displays,2020.1.2,MacIntel,60,9,1,1.18708,9,1,0.55683,0,17,17,4,1,Stimuli/testStimuliSquare/6u_s_3_2D.png,Stimuli/testStimuliSquare/6u_s_3_2D.png,0,9,,,,,,,,,c,2D
,,,,,,,18,female,A,2020-05-11_17h13.44.075,Remembering_Displays,2020.1.2,MacIntel,60,9,1,1.004065,9,1,0.437255,0,18,18,10,1,Stimuli/testStimuliSquare/6u_s_6_2D.png,Stimuli/testStimuliSquare/6u_s_6_2D.png,0,9,,,,,,,,,c,2D
,,,,,,,18,female,A,2020-05-11_17h13.44.075,Remembering_Displays,2020.1.2,MacIntel,60,1,1,0.842765,1,1,0.9012,0,19,19,23,1,Stimuli/testStimuliSquare/6u_s_6_s_2D.png,Stimuli/testStimuliSquare/6u_d_6_s_2D.png,1,1,,,,,,,,,s,2D
,,,,,,,18,female,A,2020-05-11_17h13.44.075,Remembering_Displays,2020.1.2,MacIntel,60,9,1,0.970315,9,1,0.50043,0,20,20,16,1,Stimuli/testStimuliSquare/6u_s_3_s_2D.png,Stimuli/testStimuliSquare/6u_s_3_s_2D.png,0,9,,,,,,,,,s,2D
,,,,,,,18,female,A,2020-05-11_17h13.44.075,Remembering_Displays,2020.1.2,MacIntel,60,9,1,0.72107,1,1,0.53435,0,21,21,14,1,Stimuli/testStimuliSquare/6u_s_2_s_2D.png,Stimuli/testStimuliSquare/6u_s_2_s_2D.png,0,9,,,,,,,,,s,2D
,,,,,,,18,female,A,2020-05-11_17h13.44.075,Remembering_Displays,2020.1.2,MacIntel,60,9,0,1.352735,9,1,1.12119,0,22,22,9,1,Stimuli/testStimuliSquare/6u_s_5_2D.png,Stimuli/testStimuliSquare/6u_d_5_2D.png,1,1,,,,,,,,,c,2D
,,,,,,,18,female,A,2020-05-11_17h13.44.075,Remembering_Displays,2020.1.2,MacIntel,60,9,1,0.752355,1,1,1.2548,0,23,23,20,1,Stimuli/testStimuliSquare/6u_s_5_s_2D.png,Stimuli/testStimuliSquare/6u_s_5_s_2D.png,0,9,,,,,,,,,s,2D
,,,,,,,18,female,A,2020-05-11_17h13.44.075,Remembering_Displays,2020.1.2,MacIntel,60,,,,,,,,,,,,,,,,0,1,1,1,1,Stimuli/trialListSquares1.xlsx,Instructions/instr_18.png,Progress: 24 of 192 trials completed,,
,,,,,,,18,female,A,2020-05-11_17h13.44.075,Remembering_Displays,2020.1.2,MacIntel,60,9,0,0.81118,9,0,1.68528,0,0,0,1,1,Stimuli/practiceStimuliCube/practice2_s.png,Stimuli/practiceStimuliCube/practice2_d.png,1,1,,,,,,,,,,
,,,,,,,18,female,A,2020-05-11_17h13.44.075,Remembering_Displays,2020.1.2,MacIntel,60,9,1,0.686455,9,1,0.63525,0,1,1,2,1,Stimuli/practiceStimuliCube/practice3_s.png,Stimuli/practiceStimuliCube/practice3_s.png,0,9,,,,,,,,,,
,,,,,,,18,female,A,2020-05-11_17h13.44.075,Remembering_Displays,2020.1.2,MacIntel,60,9,1,0.70236,1,1,0.81813,0,2,2,7,1,Stimuli/practiceStimuliCube/practice4_s.png,Stimuli/practiceStimuliCube/practice4_s.png,0,9,,,,,,,,,,
,,,,,,,18,female,A,2020-05-11_17h13.44.075,Remembering_Displays,2020.1.2,MacIntel,60,9,1,0.772315,1,1,1.30127,0,3,3,0,1,Stimuli/practiceStimuliCube/practice1_s.png,Stimuli/practiceStimuliCube/practice1_s.png,0,9,,,,,,,,,,
,,,,,,,18,female,A,2020-05-11_17h13.44.075,Remembering_Displays,2020.1.2,MacIntel,60,1,1,0.82484,9,1,0.902615,0,4,4,4,1,Stimuli/practiceStimuliCube/practice1_s.png,Stimuli/practiceStimuliCube/practice1_d.png,1,1,,,,,,,,,,
,,,,,,,18,female,A,2020-05-11_17h13.44.075,Remembering_Displays,2020.1.2,MacIntel,60,9,0,0.95803,1,1,1.06809,0,5,5,3,1,Stimuli/practiceStimuliCube/practice4_s.png,Stimuli/practiceStimuliCube/practice4_d.png,1,1,,,,,,,,,,
,,,,,,,18,female,A,2020-05-11_17h13.44.075,Remembering_Displays,2020.1.2,MacIntel,60,9,1,1.303115,9,1,0.817885,0,6,6,5,1,Stimuli/practiceStimuliCube/practice2_s.png,Stimuli/practiceStimuliCube/practice2_s.png,0,9,,,,,,,,,,
,,,,,,,18,female,A,2020-05-11_17h13.44.075,Remembering_Displays,2020.1.2,MacIntel,60,,0,,1,1,1.550905,0,7,7,6,1,Stimuli/practiceStimuliCube/practice3_s.png,Stimuli/practiceStimuliCube/practice3_d.png,1,1,,,,,,,,,,
,,,,,,,18,female,A,2020-05-11_17h13.44.075,Remembering_Displays,2020.1.2,MacIntel,60,,,,,,,,,,,,,,,,0,2,2,2,1,Stimuli/practiceListCubes.xlsx,Instructions/instr_practice_B.png,Practice trials completed,,
,,,,,,,18,female,A,2020-05-11_17h13.44.075,Remembering_Displays,2020.1.2,MacIntel,60,9,1,0.80302,1,1,1.203565,0,0,0,20,1,Stimuli/testStimuliCube/6u_s_23_s.png,Stimuli/testStimuliCube/6u_s_23_s.png,0,9,,,,,,,,,s,3D
,,,,,,,18,female,A,2020-05-11_17h13.44.075,Remembering_Displays,2020.1.2,MacIntel,60,9,1,0.920075,9,1,0.551475,0,1,1,22,1,Stimuli/testStimuliCube/6u_s_24_s.png,Stimuli/testStimuliCube/6u_s_24_s.png,0,9,,,,,,,,,s,3D
,,,,,,,18,female,A,2020-05-11_17h13.44.075,Remembering_Displays,2020.1.2,MacIntel,60,9,1,0.73645,9,1,0.484165,0,2,2,2,1,Stimuli/testStimuliCube/6u_s_20.png,Stimuli/testStimuliCube/6u_s_20.png,0,9,,,,,,,,,c,3D
,,,,,,,18,female,A,2020-05-11_17h13.44.075,Remembering_Displays,2020.1.2,MacIntel,60,9,1,0.717925,1,1,1.301435,0,3,3,4,1,Stimuli/testStimuliCube/6u_s_21.png,Stimuli/testStimuliCube/6u_s_21.png,0,9,,,,,,,,,c,3D
,,,,,,,18,female,A,2020-05-11_17h13.44.075,Remembering_Displays,2020.1.2,MacIntel,60,9,1,0.70283,9,1,0.868165,0,4,4,10,1,Stimuli/testStimuliCube/6u_s_24.png,Stimuli/testStimuliCube/6u_s_24.png,0,9,,,,,,,,,c,3D
,,,,,,,18,female,A,2020-05-11_17h13.44.075,Remembering_Displays,2020.1.2,MacIntel,60,9,1,0.785585,1,1,0.86844,0,5,5,6,1,Stimuli/testStimuliCube/6u_s_22.png,Stimuli/testStimuliCube/6u_s_22.png,0,9,,,,,,,,,c,3D
,,,,,,,18,female,A,2020-05-11_17h13.44.075,Remembering_Displays,2020.1.2,MacIntel,60,1,1,0.808035,9,0,1.550135,0,6,6,5,1,Stimuli/testStimuliCube/6u_s_21.png,Stimuli/testStimuliCube/6u_d_21.png,1,1,,,,,,,,,c,3D
,,,,,,,18,female,A,2020-05-11_17h13.44.075,Remembering_Displays,2020.1.2,MacIntel,60,9,0,0.61156,1,0,0.61662,0,7,7,21,1,Stimuli/testStimuliCube/6u_s_23_s.png,Stimuli/testStimuliCube/6u_d_23_s.png,1,1,,,,,,,,,s,3D
,,,,,,,18,female,A,2020-05-11_17h13.44.075,Remembering_Displays,2020.1.2,MacIntel,60,1,1,0.724755,1,1,1.000035,0,8,8,7,1,Stimuli/testStimuliCube/6u_s_22.png,Stimuli/testStimuliCube/6u_d_22.png,1,1,,,,,,,,,c,3D
,,,,,,,18,female,A,2020-05-11_17h13.44.075,Remembering_Displays,2020.1.2,MacIntel,60,1,1,0.762765,1,1,1.989025,0,9,9,19,1,Stimuli/testStimuliCube/6u_s_22_s.png,Stimuli/testStimuliCube/6u_d_22_s.png,1,1,,,,,,,,,s,3D
,,,,,,,18,female,A,2020-05-11_17h13.44.075,Remembering_Displays,2020.1.2,MacIntel,60,9,1,1.12233,1,1,1.05317,0,10,10,14,1,Stimuli/testStimuliCube/6u_s_20_s.png,Stimuli/testStimuliCube/6u_s_20_s.png,0,9,,,,,,,,,s,3D
,,,,,,,18,female,A,2020-05-11_17h13.44.075,Remembering_Displays,2020.1.2,MacIntel,60,1,1,0.957555,9,1,2.07271,0,11,11,11,1,Stimuli/testStimuliCube/6u_s_24.png,Stimuli/testStimuliCube/6u_d_24.png,1,1,,,,,,,,,c,3D
,,,,,,,18,female,A,2020-05-11_17h13.44.075,Remembering_Displays,2020.1.2,MacIntel,60,1,1,0.77881,9,1,0.51939,0,12,12,15,1,Stimuli/testStimuliCube/6u_s_20_s.png,Stimuli/testStimuliCube/6u_d_20_s.png,1,1,,,,,,,,,s,3D
,,,,,,,18,female,A,2020-05-11_17h13.44.075,Remembering_Displays,2020.1.2,MacIntel,60,9,0,1.32543,9,1,1.85151,0,13,13,3,1,Stimuli/testStimuliCube/6u_s_20.png,Stimuli/testStimuliCube/6u_d_20.png,1,1,,,,,,,,,c,3D
,,,,,,,18,female,A,2020-05-11_17h13.44.075,Remembering_Displays,2020.1.2,MacIntel,60,9,0,0.80983,1,1,3.03347,0,14,14,9,1,Stimuli/testStimuliCube/6u_s_23.png,Stimuli/testStimuliCube/6u_d_23.png,1,1,,,,,,,,,c,3D
,,,,,,,18,female,A,2020-05-11_17h13.44.075,Remembering_Displays,2020.1.2,MacIntel,60,1,0,1.15376,9,1,0.850715,0,15,15,16,1,Stimuli/testStimuliCube/6u_s_21_s.png,Stimuli/testStimuliCube/6u_s_21_s.png,0,9,,,,,,,,,s,3D
,,,,,,,18,female,A,2020-05-11_17h13.44.075,Remembering_Displays,2020.1.2,MacIntel,60,9,1,0.571045,9,1,0.568705,0,16,16,0,1,Stimuli/testStimuliCube/6u_s_19.png,Stimuli/testStimuliCube/6u_s_19.png,0,9,,,,,,,,,c,3D
,,,,,,,18,female,A,2020-05-11_17h13.44.075,Remembering_Displays,2020.1.2,MacIntel,60,9,1,0.620885,9,1,0.686135,0,17,17,18,1,Stimuli/testStimuliCube/6u_s_22_s.png,Stimuli/testStimuliCube/6u_s_22_s.png,0,9,,,,,,,,,s,3D
,,,,,,,18,female,A,2020-05-11_17h13.44.075,Remembering_Displays,2020.1.2,MacIntel,60,9,1,0.70691,9,0,0.63491,0,18,18,12,1,Stimuli/testStimuliCube/6u_s_19_s.png,Stimuli/testStimuliCube/6u_s_19_s.png,0,9,,,,,,,,,s,3D
,,,,,,,18,female,A,2020-05-11_17h13.44.075,Remembering_Displays,2020.1.2,MacIntel,60,9,1,0.837165,9,1,0.65117,0,19,19,8,1,Stimuli/testStimuliCube/6u_s_23.png,Stimuli/testStimuliCube/6u_s_23.png,0,9,,,,,,,,,c,3D
,,,,,,,18,female,A,2020-05-11_17h13.44.075,Remembering_Displays,2020.1.2,MacIntel,60,1,1,1.04251,1,1,1.574065,0,20,20,1,1,Stimuli/testStimuliCube/6u_s_19.png,Stimuli/testStimuliCube/6u_d_19.png,1,1,,,,,,,,,c,3D
,,,,,,,18,female,A,2020-05-11_17h13.44.075,Remembering_Displays,2020.1.2,MacIntel,60,1,1,0.91357,1,1,1.87102,0,21,21,17,1,Stimuli/testStimuliCube/6u_s_21_s.png,Stimuli/testStimuliCube/6u_d_21_s.png,1,1,,,,,,,,,s,3D
,,,,,,,18,female,A,2020-05-11_17h13.44.075,Remembering_Displays,2020.1.2,MacIntel,60,1,1,0.89543,1,1,1.60193,0,22,22,13,1,Stimuli/testStimuliCube/6u_s_19_s.png,Stimuli/testStimuliCube/6u_d_19_s.png,1,1,,,,,,,,,s,3D
,,,,,,,18,female,A,2020-05-11_17h13.44.075,Remembering_Displays,2020.1.2,MacIntel,60,1,1,0.82945,9,1,0.685065,0,23,23,23,1,Stimuli/testStimuliCube/6u_s_24_s.png,Stimuli/testStimuliCube/6u_d_24_s.png,1,1,,,,,,,,,s,3D
,,,,,,,18,female,A,2020-05-11_17h13.44.075,Remembering_Displays,2020.1.2,MacIntel,60,,,,,,,,,,,,,,,,0,3,3,3,1,Stimuli/trialListCubes4.xlsx,Instructions/instr_19.png,Progress: 48 of 192 trials completed,,
,,,,,,,18,female,A,2020-05-11_17h13.44.075,Remembering_Displays,2020.1.2,MacIntel,60,9,1,1.05396,9,1,0.49914,0,0,0,20,1,Stimuli/testStimuliSquare/6u_s_11_s_2D.png,Stimuli/testStimuliSquare/6u_s_11_s_2D.png,0,9,,,,,,,,,s,2D
,,,,,,,18,female,A,2020-05-11_17h13.44.075,Remembering_Displays,2020.1.2,MacIntel,60,1,1,0.744765,1,0,1.10377,0,1,1,15,1,Stimuli/testStimuliSquare/6u_s_8_s_2D.png,Stimuli/testStimuliSquare/6u_d_8_s_2D.png,1,1,,,,,,,,,s,2D
,,,,,,,18,female,A,2020-05-11_17h13.44.075,Remembering_Displays,2020.1.2,MacIntel,60,,0,,9,0,1.3392,0,2,2,5,1,Stimuli/testStimuliSquare/6u_s_9_2D.png,Stimuli/testStimuliSquare/6u_d_9_2D.png,1,1,,,,,,,,,c,2D
,,,,,,,18,female,A,2020-05-11_17h13.44.075,Remembering_Displays,2020.1.2,MacIntel,60,9,0,0.99246,1,1,1.83505,0,3,3,23,1,Stimuli/testStimuliSquare/6u_s_12_s_2D.png,Stimuli/testStimuliSquare/6u_d_12_s_2D.png,1,1,,,,,,,,,s,2D
,,,,,,,18,female,A,2020-05-11_17h13.44.075,Remembering_Displays,2020.1.2,MacIntel,60,9,1,0.7547,9,1,0.618295,0,4,4,12,1,Stimuli/testStimuliSquare/6u_s_7_s_2D.png,Stimuli/testStimuliSquare/6u_s_7_s_2D.png,0,9,,,,,,,,,s,2D
,,,,,,,18,female,A,2020-05-11_17h13.44.075,Remembering_Displays,2020.1.2,MacIntel,60,1,1,0.78336,9,1,0.940825,0,5,5,9,1,Stimuli/testStimuliSquare/6u_s_11_2D.png,Stimuli/testStimuliSquare/6u_d_11_2D.png,1,1,,,,,,,,,c,2D
,,,,,,,18,female,A,2020-05-11_17h13.44.075,Remembering_Displays,2020.1.2,MacIntel,60,1,0,1.33747,1,1,3.535015,0,6,6,2,1,Stimuli/testStimuliSquare/6u_s_8_2D.png,Stimuli/testStimuliSquare/6u_s_8_2D.png,0,9,,,,,,,,,c,2D
,,,,,,,18,female,A,2020-05-11_17h13.44.075,Remembering_Displays,2020.1.2,MacIntel,60,9,0,0.79212,1,1,2.001665,0,7,7,17,1,Stimuli/testStimuliSquare/6u_s_9_s_2D.png,Stimuli/testStimuliSquare/6u_d_9_s_2D.png,1,1,,,,,,,,,s,2D
,,,,,,,18,female,A,2020-05-11_17h13.44.075,Remembering_Displays,2020.1.2,MacIntel,60,9,1,0.98854,9,1,0.60482,0,8,8,14,1,Stimuli/testStimuliSquare/6u_s_8_s_2D.png,Stimuli/testStimuliSquare/6u_s_8_s_2D.png,0,9,,,,,,,,,s,2D
,,,,,,,18,female,A,2020-05-11_17h13.44.075,Remembering_Displays,2020.1.2,MacIntel,60,9,0,0.943035,9,1,0.85129,0,9,9,21,1,Stimuli/testStimuliSquare/6u_s_11_s_2D.png,Stimuli/testStimuliSquare/6u_d_11_s_2D.png,1,1,,,,,,,,,s,2D
,,,,,,,18,female,A,2020-05-11_17h13.44.075,Remembering_Displays,2020.1.2,MacIntel,60,1,1,0.84828,1,1,2.41741,0,10,10,7,1,Stimuli/testStimuliSquare/6u_s_10_2D.png,Stimuli/testStimuliSquare/6u_d_10_2D.png,1,1,,,,,,,,,c,2D
,,,,,,,18,female,A,2020-05-11_17h13.44.075,Remembering_Displays,2020.1.2,MacIntel,60,9,1,0.85404,9,1,0.634735,0,11,11,16,1,Stimuli/testStimuliSquare/6u_s_9_s_2D.png,Stimuli/testStimuliSquare/6u_s_9_s_2D.png,0,9,,,,,,,,,s,2D
,,,,,,,18,female,A,2020-05-11_17h13.44.075,Remembering_Displays,2020.1.2,MacIntel,60,9,1,0.752905,1,1,0.754595,0,12,12,0,1,Stimuli/testStimuliSquare/6u_s_7_2D.png,Stimuli/testStimuliSquare/6u_s_7_2D.png,0,9,,,,,,,,,c,2D
,,,,,,,18,female,A,2020-05-11_17h13.44.075,Remembering_Displays,2020.1.2,MacIntel,60,9,1,0.986665,1,1,1.652155,0,13,13,18,1,Stimuli/testStimuliSquare/6u_s_10_s_2D.png,Stimuli/testStimuliSquare/6u_s_10_s_2D.png,0,9,,,,,,,,,s,2D
,,,,,,,18,female,A,2020-05-11_17h13.44.075,Remembering_Displays,2020.1.2,MacIntel,60,1,1,0.74797,1,1,1.40102,0,14,14,1,1,Stimuli/testStimuliSquare/6u_s_7_2D.png,Stimuli/testStimuliSquare/6u_d_7_2D.png,1,1,,,,,,,,,c,2D
,,,,,,,18,female,A,2020-05-11_17h13.44.075,Remembering_Displays,2020.1.2,MacIntel,60,1,1,0.90122,9,1,0.918195,0,15,15,11,1,Stimuli/testStimuliSquare/6u_s_12_2D.png,Stimuli/testStimuliSquare/6u_d_12_2D.png,1,1,,,,,,,,,c,2D
,,,,,,,18,female,A,2020-05-11_17h13.44.075,Remembering_Displays,2020.1.2,MacIntel,60,9,1,0.871125,9,1,1.604675,0,16,16,22,1,Stimuli/testStimuliSquare/6u_s_12_s_2D.png,Stimuli/testStimuliSquare/6u_s_12_s_2D.png,0,9,,,,,,,,,s,2D
,,,,,,,18,female,A,2020-05-11_17h13.44.075,Remembering_Displays,2020.1.2,MacIntel,60,9,1,0.870695,9,1,0.46805,0,17,17,8,1,Stimuli/testStimuliSquare/6u_s_11_2D.png,Stimuli/testStimuliSquare/6u_s_11_2D.png,0,9,,,,,,,,,c,2D
,,,,,,,18,female,A,2020-05-11_17h13.44.075,Remembering_Displays,2020.1.2,MacIntel,60,1,1,0.707985,1,1,0.767605,0,18,18,19,1,Stimuli/testStimuliSquare/6u_s_10_s_2D.png,Stimuli/testStimuliSquare/6u_d_10_s_2D.png,1,1,,,,,,,,,s,2D
,,,,,,,18,female,A,2020-05-11_17h13.44.075,Remembering_Displays,2020.1.2,MacIntel,60,1,1,1.16912,1,1,0.751005,0,19,19,3,1,Stimuli/testStimuliSquare/6u_s_8_2D.png,Stimuli/testStimuliSquare/6u_d_8_2D.png,1,1,,,,,,,,,c,2D
,,,,,,,18,female,A,2020-05-11_17h13.44.075,Remembering_Displays,2020.1.2,MacIntel,60,9,1,0.972145,1,1,0.623175,0,20,20,6,1,Stimuli/testStimuliSquare/6u_s_10_2D.png,Stimuli/testStimuliSquare/6u_s_10_2D.png,0,9,,,,,,,,,c,2D
,,,,,,,18,female,A,2020-05-11_17h13.44.075,Remembering_Displays,2020.1.2,MacIntel,60,1,1,0.69591,9,1,0.735545,0,21,21,13,1,Stimuli/testStimuliSquare/6u_s_7_s_2D.png,Stimuli/testStimuliSquare/6u_d_7_s_2D.png,1,1,,,,,,,,,s,2D
,,,,,,,18,female,A,2020-05-11_17h13.44.075,Remembering_Displays,2020.1.2,MacIntel,60,,0,,9,1,0.900535,0,22,22,4,1,Stimuli/testStimuliSquare/6u_s_9_2D.png,Stimuli/testStimuliSquare/6u_s_9_2D.png,0,9,,,,,,,,,c,2D
,,,,,,,18,female,A,2020-05-11_17h13.44.075,Remembering_Displays,2020.1.2,MacIntel,60,1,0,0.921425,1,1,0.801995,0,23,23,10,1,Stimuli/testStimuliSquare/6u_s_12_2D.png,Stimuli/testStimuliSquare/6u_s_12_2D.png,0,9,,,,,,,,,c,2D
,,,,,,,18,female,A,2020-05-11_17h13.44.075,Remembering_Displays,2020.1.2,MacIntel,60,,,,,,,,,,,,,,,,0,4,4,4,1,Stimuli/trialListSquares2.xlsx,Instructions/instr_18.png,Progress: 72 of 192 trials completed,,
,,,,,,,18,female,A,2020-05-11_17h13.44.075,Remembering_Displays,2020.1.2,MacIntel,60,1,1,0.708185,9,1,1.05136,0,0,0,3,1,Stimuli/testStimuliCube/6u_s_14.png,Stimuli/testStimuliCube/6u_d_14.png,1,1,,,,,,,,,c,3D
,,,,,,,18,female,A,2020-05-11_17h13.44.075,Remembering_Displays,2020.1.2,MacIntel,60,9,0,0.79663,1,1,1.051155,0,1,1,23,1,Stimuli/testStimuliCube/6u_s_18_s.png,Stimuli/testStimuliCube/6u_d_18_s.png,1,1,,,,,,,,,s,3D
,,,,,,,18,female,A,2020-05-11_17h13.44.075,Remembering_Displays,2020.1.2,MacIntel,60,9,1,0.67015,9,1,0.984955,0,2,2,18,1,Stimuli/testStimuliCube/6u_s_16_s.png,Stimuli/testStimuliCube/6u_s_16_s.png,0,9,,,,,,,,,s,3D
,,,,,,,18,female,A,2020-05-11_17h13.44.075,Remembering_Displays,2020.1.2,MacIntel,60,1,1,0.857145,1,1,1.653375,0,3,3,7,1,Stimuli/testStimuliCube/6u_s_16.png,Stimuli/testStimuliCube/6u_d_16.png,1,1,,,,,,,,,c,3D
,,,,,,,18,female,A,2020-05-11_17h13.44.075,Remembering_Displays,2020.1.2,MacIntel,60,1,1,0.592555,9,1,2.88601,0,4,4,15,1,Stimuli/testStimuliCube/6u_s_14_s.png,Stimuli/testStimuliCube/6u_d_14_s.png,1,1,,,,,,,,,s,3D
,,,,,,,18,female,A,2020-05-11_17h13.44.075,Remembering_Displays,2020.1.2,MacIntel,60,1,0,1.05359,9,1,0.633705,0,5,5,20,1,Stimuli/testStimuliCube/6u_s_17_s.png,Stimuli/testStimuliCube/6u_s_17_s.png,0,9,,,,,,,,,s,3D
,,,,,,,18,female,A,2020-05-11_17h13.44.075,Remembering_Displays,2020.1.2,MacIntel,60,9,0,0.69481,9,1,0.633635,0,6,6,13,1,Stimuli/testStimuliCube/6u_s_13_s.png,Stimuli/testStimuliCube/6u_d_13_s.png,1,1,,,,,,,,,s,3D
,,,,,,,18,female,A,2020-05-11_17h13.44.075,Remembering_Displays,2020.1.2,MacIntel,60,9,1,0.520955,1,1,0.7183,0,7,7,22,1,Stimuli/testStimuliCube/6u_s_18_s.png,Stimuli/testStimuliCube/6u_s_18_s.png,0,9,,,,,,,,,s,3D
,,,,,,,18,female,A,2020-05-11_17h13.44.075,Remembering_Displays,2020.1.2,MacIntel,60,9,0,1.006875,9,1,1.385895,0,8,8,9,1,Stimuli/testStimuliCube/6u_s_17.png,Stimuli/testStimuliCube/6u_d_17.png,1,1,,,,,,,,,c,3D
,,,,,,,18,female,A,2020-05-11_17h13.44.075,Remembering_Displays,2020.1.2,MacIntel,60,9,1,0.588535,1,1,1.18348,0,9,9,0,1,Stimuli/testStimuliCube/6u_s_13.png,Stimuli/testStimuliCube/6u_s_13.png,0,9,,,,,,,,,c,3D
,,,,,,,18,female,A,2020-05-11_17h13.44.075,Remembering_Displays,2020.1.2,MacIntel,60,1,0,0.870125,1,1,3.92339,0,10,10,2,1,Stimuli/testStimuliCube/6u_s_14.png,Stimuli/testStimuliCube/6u_s_14.png,0,9,,,,,,,,,c,3D
,,,,,,,18,female,A,2020-05-11_17h13.44.075,Remembering_Displays,2020.1.2,MacIntel,60,9,0,0.893705,9,1,0.551415,0,11,11,1,1,Stimuli/testStimuliCube/6u_s_13.png,Stimuli/testStimuliCube/6u_d_13.png,1,1,,,,,,,,,c,3D
,,,,,,,18,female,A,2020-05-11_17h13.44.075,Remembering_Displays,2020.1.2,MacIntel,60,9,1,0.668475,1,1,1.889465,0,12,12,10,1,Stimuli/testStimuliCube/6u_s_18.png,Stimuli/testStimuliCube/6u_s_18.png,0,9,,,,,,,,,c,3D
,,,,,,,18,female,A,2020-05-11_17h13.44.075,Remembering_Displays,2020.1.2,MacIntel,60,9,1,0.950365,9,1,0.968585,0,13,13,14,1,Stimuli/testStimuliCube/6u_s_14_s.png,Stimuli/testStimuliCube/6u_s_14_s.png,0,9,,,,,,,,,s,3D
,,,,,,,18,female,A,2020-05-11_17h13.44.075,Remembering_Displays,2020.1.2,MacIntel,60,1,1,0.66214,9,1,0.88822,0,14,14,17,1,Stimuli/testStimuliCube/6u_s_15_s.png,Stimuli/testStimuliCube/6u_d_15_s.png,1,1,,,,,,,,,s,3D
,,,,,,,18,female,A,2020-05-11_17h13.44.075,Remembering_Displays,2020.1.2,MacIntel,60,1,1,0.82378,9,0,2.17199,0,15,15,11,1,Stimuli/testStimuliCube/6u_s_18.png,Stimuli/testStimuliCube/6u_d_18.png,1,1,,,,,,,,,c,3D
,,,,,,,18,female,A,2020-05-11_17h13.44.075,Remembering_Displays,2020.1.2,MacIntel,60,9,1,0.634805,9,1,1.10127,0,16,16,4,1,Stimuli/testStimuliCube/6u_s_15.png,Stimuli/testStimuliCube/6u_s_15.png,0,9,,,,,,,,,c,3D
,,,,,,,18,female,A,2020-05-11_17h13.44.075,Remembering_Displays,2020.1.2,MacIntel,60,9,1,0.75383,1,1,1.101245,0,17,17,6,1,Stimuli/testStimuliCube/6u_s_16.png,Stimuli/testStimuliCube/6u_s_16.png,0,9,,,,,,,,,c,3D
,,,,,,,18,female,A,2020-05-11_17h13.44.075,Remembering_Displays,2020.1.2,MacIntel,60,1,1,0.72394,1,1,1.06815,0,18,18,5,1,Stimuli/testStimuliCube/6u_s_15.png,Stimuli/testStimuliCube/6u_d_15.png,1,1,,,,,,,,,c,3D
,,,,,,,18,female,A,2020-05-11_17h13.44.075,Remembering_Displays,2020.1.2,MacIntel,60,1,0,0.78931,9,0,1.185935,0,19,19,12,1,Stimuli/testStimuliCube/6u_s_13_s.png,Stimuli/testStimuliCube/6u_s_13_s.png,0,9,,,,,,,,,s,3D
,,,,,,,18,female,A,2020-05-11_17h13.44.075,Remembering_Displays,2020.1.2,MacIntel,60,9,1,0.68938,9,1,0.48452,0,20,20,8,1,Stimuli/testStimuliCube/6u_s_17.png,Stimuli/testStimuliCube/6u_s_17.png,0,9,,,,,,,,,c,3D
,,,,,,,18,female,A,2020-05-11_17h13.44.075,Remembering_Displays,2020.1.2,MacIntel,60,1,1,0.71071,1,1,1.384095,0,21,21,21,1,Stimuli/testStimuliCube/6u_s_17_s.png,Stimuli/testStimuliCube/6u_d_17_s.png,1,1,,,,,,,,,s,3D
,,,,,,,18,female,A,2020-05-11_17h13.44.075,Remembering_Displays,2020.1.2,MacIntel,60,1,1,0.70962,9,1,1.01733,0,22,22,19,1,Stimuli/testStimuliCube/6u_s_16_s.png,Stimuli/testStimuliCube/6u_d_16_s.png,1,1,,,,,,,,,s,3D
,,,,,,,18,female,A,2020-05-11_17h13.44.075,Remembering_Displays,2020.1.2,MacIntel,60,9,1,1.171035,1,1,1.23465,0,23,23,16,1,Stimuli/testStimuliCube/6u_s_15_s.png,Stimuli/testStimuliCube/6u_s_15_s.png,0,9,,,,,,,,,s,3D
,,,,,,,18,female,A,2020-05-11_17h13.44.075,Remembering_Displays,2020.1.2,MacIntel,60,,,,,,,,,,,,,,,,0,5,5,5,1,Stimuli/trialListCubes3.xlsx,Instructions/instr_19.png,Progress: 96 of 192 trials completed,,
,,,,,,,18,female,A,2020-05-11_17h13.44.075,Remembering_Displays,2020.1.2,MacIntel,60,1,1,0.832845,1,1,1.43583,0,0,0,7,1,Stimuli/testStimuliSquare/6u_s_16_2D.png,Stimuli/testStimuliSquare/6u_d_16_2D.png,1,1,,,,,,,,,c,2D
,,,,,,,18,female,A,2020-05-11_17h13.44.075,Remembering_Displays,2020.1.2,MacIntel,60,9,1,1.433985,9,1,2.201695,0,1,1,4,1,Stimuli/testStimuliSquare/6u_s_15_2D.png,Stimuli/testStimuliSquare/6u_s_15_2D.png,0,9,,,,,,,,,c,2D
,,,,,,,18,female,A,2020-05-11_17h13.44.075,Remembering_Displays,2020.1.2,MacIntel,60,1,1,0.600375,1,1,0.57278,0,2,2,5,1,Stimuli/testStimuliSquare/6u_s_15_2D.png,Stimuli/testStimuliSquare/6u_d_15_2D.png,1,1,,,,,,,,,c,2D
,,,,,,,18,female,A,2020-05-11_17h13.44.075,Remembering_Displays,2020.1.2,MacIntel,60,9,1,0.987775,9,1,0.80215,0,3,3,20,1,Stimuli/testStimuliSquare/6u_s_17_s_2D.png,Stimuli/testStimuliSquare/6u_s_17_s_2D.png,0,9,,,,,,,,,s,2D
,,,,,,,18,female,A,2020-05-11_17h13.44.075,Remembering_Displays,2020.1.2,MacIntel,60,9,1,0.804295,1,1,2.50132,0,4,4,14,1,Stimuli/testStimuliSquare/6u_s_14_s_2D.png,Stimuli/testStimuliSquare/6u_s_14_s_2D.png,0,9,,,,,,,,,s,2D
,,,,,,,18,female,A,2020-05-11_17h13.44.075,Remembering_Displays,2020.1.2,MacIntel,60,9,1,0.853515,1,1,0.63361,0,5,5,18,1,Stimuli/testStimuliSquare/6u_s_16_s_2D.png,Stimuli/testStimuliSquare/6u_s_16_s_2D.png,0,9,,,,,,,,,s,2D
,,,,,,,18,female,A,2020-05-11_17h13.44.075,Remembering_Displays,2020.1.2,MacIntel,60,1,0,1.086645,1,1,1.32306,0,6,6,2,1,Stimuli/testStimuliSquare/6u_s_14_2D.png,Stimuli/testStimuliSquare/6u_s_14_2D.png,0,9,,,,,,,,,c,2D
,,,,,,,18,female,A,2020-05-11_17h13.44.075,Remembering_Displays,2020.1.2,MacIntel,60,9,1,1.00413,1,1,0.63427,0,7,7,10,1,Stimuli/testStimuliSquare/6u_s_18_2D.png,Stimuli/testStimuliSquare/6u_s_18_2D.png,0,9,,,,,,,,,c,2D
,,,,,,,18,female,A,2020-05-11_17h13.44.075,Remembering_Displays,2020.1.2,MacIntel,60,9,1,0.621195,9,1,0.45145,0,8,8,0,1,Stimuli/testStimuliSquare/6u_s_13_2D.png,Stimuli/testStimuliSquare/6u_s_13_2D.png,0,9,,,,,,,,,c,2D
,,,,,,,18,female,A,2020-05-11_17h13.44.075,Remembering_Displays,2020.1.2,MacIntel,60,1,1,0.93374,9,1,0.93372,0,9,9,9,1,Stimuli/testStimuliSquare/6u_s_17_2D.png,Stimuli/testStimuliSquare/6u_d_17_2D.png,1,1,,,,,,,,,c,2D
,,,,,,,18,female,A,2020-05-11_17h13.44.075,Remembering_Displays,2020.1.2,MacIntel,60,9,1,0.83819,1,1,0.702055,0,10,10,16,1,Stimuli/testStimuliSquare/6u_s_15_s_2D.png,Stimuli/testStimuliSquare/6u_s_15_s_2D.png,0,9,,,,,,,,,s,2D
,,,,,,,18,female,A,2020-05-11_17h13.44.075,Remembering_Displays,2020.1.2,MacIntel,60,9,1,0.686265,1,1,0.734645,0,11,11,6,1,Stimuli/testStimuliSquare/6u_s_16_2D.png,Stimuli/testStimuliSquare/6u_s_16_2D.png,0,9,,,,,,,,,c,2D
,,,,,,,18,female,A,2020-05-11_17h13.44.075,Remembering_Displays,2020.1.2,MacIntel,60,1,1,0.65228,1,1,3.721695,0,12,12,3,1,Stimuli/testStimuliSquare/6u_s_14_2D.png,Stimuli/testStimuliSquare/6u_d_14_2D.png,1,1,,,,,,,,,c,2D
,,,,,,,18,female,A,2020-05-11_17h13.44.075,Remembering_Displays,2020.1.2,MacIntel,60,9,0,0.69181,1,1,0.940565,0,13,13,13,1,Stimuli/testStimuliSquare/6u_s_13_s_2D.png,Stimuli/testStimuliSquare/6u_d_13_s_2D.png,1,1,,,,,,,,,s,2D
,,,,,,,18,female,A,2020-05-11_17h13.44.075,Remembering_Displays,2020.1.2,MacIntel,60,1,1,0.626245,9,1,0.634575,0,14,14,19,1,Stimuli/testStimuliSquare/6u_s_16_s_2D.png,Stimuli/testStimuliSquare/6u_d_16_s_2D.png,1,1,,,,,,,,,s,2D
,,,,,,,18,female,A,2020-05-11_17h13.44.075,Remembering_Displays,2020.1.2,MacIntel,60,9,1,0.971685,9,1,1.11804,0,15,15,8,1,Stimuli/testStimuliSquare/6u_s_17_2D.png,Stimuli/testStimuliSquare/6u_s_17_2D.png,0,9,,,,,,,,,c,2D
,,,,,,,18,female,A,2020-05-11_17h13.44.075,Remembering_Displays,2020.1.2,MacIntel,60,1,0,1.121585,9,0,1.16709,0,16,16,12,1,Stimuli/testStimuliSquare/6u_s_13_s_2D.png,Stimuli/testStimuliSquare/6u_s_13_s_2D.png,0,9,,,,,,,,,s,2D
,,,,,,,18,female,A,2020-05-11_17h13.44.075,Remembering_Displays,2020.1.2,MacIntel,60,1,1,0.767855,1,1,0.61839,0,17,17,11,1,Stimuli/testStimuliSquare/6u_s_18_2D.png,Stimuli/testStimuliSquare/6u_d_18_2D.png,1,1,,,,,,,,,c,2D
,,,,,,,18,female,A,2020-05-11_17h13.44.075,Remembering_Displays,2020.1.2,MacIntel,60,1,1,0.640365,1,0,4.518485,0,18,18,15,1,Stimuli/testStimuliSquare/6u_s_14_s_2D.png,Stimuli/testStimuliSquare/6u_d_14_s_2D.png,1,1,,,,,,,,,s,2D
,,,,,,,18,female,A,2020-05-11_17h13.44.075,Remembering_Displays,2020.1.2,MacIntel,60,9,0,0.95028,9,1,0.501125,0,19,19,1,1,Stimuli/testStimuliSquare/6u_s_13_2D.png,Stimuli/testStimuliSquare/6u_d_13_2D.png,1,1,,,,,,,,,c,2D
,,,,,,,18,female,A,2020-05-11_17h13.44.075,Remembering_Displays,2020.1.2,MacIntel,60,9,1,0.67203,1,1,1.08462,0,20,20,22,1,Stimuli/testStimuliSquare/6u_s_18_s_2D.png,Stimuli/testStimuliSquare/6u_s_18_s_2D.png,0,9,,,,,,,,,s,2D
,,,,,,,18,female,A,2020-05-11_17h13.44.075,Remembering_Displays,2020.1.2,MacIntel,60,1,1,0.72511,1,1,0.65109,0,21,21,21,1,Stimuli/testStimuliSquare/6u_s_17_s_2D.png,Stimuli/testStimuliSquare/6u_d_17_s_2D.png,1,1,,,,,,,,,s,2D
,,,,,,,18,female,A,2020-05-11_17h13.44.075,Remembering_Displays,2020.1.2,MacIntel,60,1,1,0.8086,9,0,1.871605,0,22,22,17,1,Stimuli/testStimuliSquare/6u_s_15_s_2D.png,Stimuli/testStimuliSquare/6u_d_15_s_2D.png,1,1,,,,,,,,,s,2D
,,,,,,,18,female,A,2020-05-11_17h13.44.075,Remembering_Displays,2020.1.2,MacIntel,60,9,0,0.64317,1,1,1.05297,0,23,23,23,1,Stimuli/testStimuliSquare/6u_s_18_s_2D.png,Stimuli/testStimuliSquare/6u_d_18_s_2D.png,1,1,,,,,,,,,s,2D
,,,,,,,18,female,A,2020-05-11_17h13.44.075,Remembering_Displays,2020.1.2,MacIntel,60,,,,,,,,,,,,,,,,0,6,6,6,1,Stimuli/trialListSquares3.xlsx,Instructions/instr_18.png,Progress: 120 of 192 trials completed,,
,,,,,,,18,female,A,2020-05-11_17h13.44.075,Remembering_Displays,2020.1.2,MacIntel,60,1,1,0.64187,9,1,0.771995,0,0,0,1,1,Stimuli/testStimuliCube/6u_s_7.png,Stimuli/testStimuliCube/6u_d_7.png,1,1,,,,,,,,,c,3D
,,,,,,,18,female,A,2020-05-11_17h13.44.075,Remembering_Displays,2020.1.2,MacIntel,60,9,1,0.719475,1,1,0.468865,0,1,1,20,1,Stimuli/testStimuliCube/6u_s_11_s.png,Stimuli/testStimuliCube/6u_s_11_s.png,0,9,,,,,,,,,s,3D
,,,,,,,18,female,A,2020-05-11_17h13.44.075,Remembering_Displays,2020.1.2,MacIntel,60,9,0,0.894325,9,1,0.97314,0,2,2,23,1,Stimuli/testStimuliCube/6u_s_12_s.png,Stimuli/testStimuliCube/6u_d_12_s.png,1,1,,,,,,,,,s,3D
,,,,,,,18,female,A,2020-05-11_17h13.44.075,Remembering_Displays,2020.1.2,MacIntel,60,9,1,0.737285,9,1,0.81815,0,3,3,18,1,Stimuli/testStimuliCube/6u_s_10_s.png,Stimuli/testStimuliCube/6u_s_10_s.png,0,9,,,,,,,,,s,3D
,,,,,,,18,female,A,2020-05-11_17h13.44.075,Remembering_Displays,2020.1.2,MacIntel,60,9,0,0.856495,1,1,1.05118,0,4,4,11,1,Stimuli/testStimuliCube/6u_s_12.png,Stimuli/testStimuliCube/6u_d_12.png,1,1,,,,,,,,,c,3D
,,,,,,,18,female,A,2020-05-11_17h13.44.075,Remembering_Displays,2020.1.2,MacIntel,60,9,0,0.80878,9,0,0.57207,0,5,5,7,1,Stimuli/testStimuliCube/6u_s_10.png,Stimuli/testStimuliCube/6u_d_10.png,1,1,,,,,,,,,c,3D
,,,,,,,18,female,A,2020-05-11_17h13.44.075,Remembering_Displays,2020.1.2,MacIntel,60,9,1,0.58638,1,1,0.53361,0,6,6,14,1,Stimuli/testStimuliCube/6u_s_8_s.png,Stimuli/testStimuliCube/6u_s_8_s.png,0,9,,,,,,,,,s,3D
,,,,,,,18,female,A,2020-05-11_17h13.44.075,Remembering_Displays,2020.1.2,MacIntel,60,1,1,0.62951,1,1,2.218305,0,7,7,17,1,Stimuli/testStimuliCube/6u_s_9_s.png,Stimuli/testStimuliCube/6u_d_9_s.png,1,1,,,,,,,,,s,3D
,,,,,,,18,female,A,2020-05-11_17h13.44.075,Remembering_Displays,2020.1.2,MacIntel,60,9,1,0.77084,9,1,0.40163,0,8,8,0,1,Stimuli/testStimuliCube/6u_s_7.png,Stimuli/testStimuliCube/6u_s_7.png,0,9,,,,,,,,,c,3D
,,,,,,,18,female,A,2020-05-11_17h13.44.075,Remembering_Displays,2020.1.2,MacIntel,60,9,0,0.77459,1,1,1.051005,0,9,9,3,1,Stimuli/testStimuliCube/6u_s_8.png,Stimuli/testStimuliCube/6u_d_8.png,1,1,,,,,,,,,c,3D
,,,,,,,18,female,A,2020-05-11_17h13.44.075,Remembering_Displays,2020.1.2,MacIntel,60,9,0,0.61036,9,1,0.83488,0,10,10,21,1,Stimuli/testStimuliCube/6u_s_11_s.png,Stimuli/testStimuliCube/6u_d_11_s.png,1,1,,,,,,,,,s,3D
,,,,,,,18,female,A,2020-05-11_17h13.44.075,Remembering_Displays,2020.1.2,MacIntel,60,1,1,0.791275,9,1,0.55375,0,11,11,5,1,Stimuli/testStimuliCube/6u_s_9.png,Stimuli/testStimuliCube/6u_d_9.png,1,1,,,,,,,,,c,3D
,,,,,,,18,female,A,2020-05-11_17h13.44.075,Remembering_Displays,2020.1.2,MacIntel,60,9,1,0.671235,1,1,0.719375,0,12,12,16,1,Stimuli/testStimuliCube/6u_s_9_s.png,Stimuli/testStimuliCube/6u_s_9_s.png,0,9,,,,,,,,,s,3D
,,,,,,,18,female,A,2020-05-11_17h13.44.075,Remembering_Displays,2020.1.2,MacIntel,60,9,1,0.719325,9,1,1.15135,0,13,13,4,1,Stimuli/testStimuliCube/6u_s_9.png,Stimuli/testStimuliCube/6u_s_9.png,0,9,,,,,,,,,c,3D
,,,,,,,18,female,A,2020-05-11_17h13.44.075,Remembering_Displays,2020.1.2,MacIntel,60,1,0,0.803285,1,1,0.70187,0,14,14,8,1,Stimuli/testStimuliCube/6u_s_11.png,Stimuli/testStimuliCube/6u_s_11.png,0,9,,,,,,,,,c,3D
,,,,,,,18,female,A,2020-05-11_17h13.44.075,Remembering_Displays,2020.1.2,MacIntel,60,1,1,0.66094,9,1,0.689005,0,15,15,13,1,Stimuli/testStimuliCube/6u_s_7_s.png,Stimuli/testStimuliCube/6u_d_7_s.png,1,1,,,,,,,,,s,3D
,,,,,,,18,female,A,2020-05-11_17h13.44.075,Remembering_Displays,2020.1.2,MacIntel,60,1,1,1.041815,1,1,1.851285,0,16,16,9,1,Stimuli/testStimuliCube/6u_s_11.png,Stimuli/testStimuliCube/6u_d_11.png,1,1,,,,,,,,,c,3D
,,,,,,,18,female,A,2020-05-11_17h13.44.075,Remembering_Displays,2020.1.2,MacIntel,60,1,1,0.91185,1,1,0.706495,0,17,17,15,1,Stimuli/testStimuliCube/6u_s_8_s.png,Stimuli/testStimuliCube/6u_d_8_s.png,1,1,,,,,,,,,s,3D
,,,,,,,18,female,A,2020-05-11_17h13.44.075,Remembering_Displays,2020.1.2,MacIntel,60,1,1,0.760595,1,1,1.41875,0,18,18,19,1,Stimuli/testStimuliCube/6u_s_10_s.png,Stimuli/testStimuliCube/6u_d_10_s.png,1,1,,,,,,,,,s,3D
,,,,,,,18,female,A,2020-05-11_17h13.44.075,Remembering_Displays,2020.1.2,MacIntel,60,9,1,0.969645,1,1,0.655505,0,19,19,2,1,Stimuli/testStimuliCube/6u_s_8.png,Stimuli/testStimuliCube/6u_s_8.png,0,9,,,,,,,,,c,3D
,,,,,,,18,female,A,2020-05-11_17h13.44.075,Remembering_Displays,2020.1.2,MacIntel,60,9,1,0.73786,9,1,0.53561,0,20,20,6,1,Stimuli/testStimuliCube/6u_s_10.png,Stimuli/testStimuliCube/6u_s_10.png,0,9,,,,,,,,,c,3D
,,,,,,,18,female,A,2020-05-11_17h13.44.075,Remembering_Displays,2020.1.2,MacIntel,60,9,1,0.619925,9,1,0.92232,0,21,21,12,1,Stimuli/testStimuliCube/6u_s_7_s.png,Stimuli/testStimuliCube/6u_s_7_s.png,0,9,,,,,,,,,s,3D
,,,,,,,18,female,A,2020-05-11_17h13.44.075,Remembering_Displays,2020.1.2,MacIntel,60,9,1,0.670085,1,1,0.98356,0,22,22,10,1,Stimuli/testStimuliCube/6u_s_12.png,Stimuli/testStimuliCube/6u_s_12.png,0,9,,,,,,,,,c,3D
,,,,,,,18,female,A,2020-05-11_17h13.44.075,Remembering_Displays,2020.1.2,MacIntel,60,9,1,0.653755,9,1,1.772645,0,23,23,22,1,Stimuli/testStimuliCube/6u_s_12_s.png,Stimuli/testStimuliCube/6u_s_12_s.png,0,9,,,,,,,,,s,3D
,,,,,,,18,female,A,2020-05-11_17h13.44.075,Remembering_Displays,2020.1.2,MacIntel,60,,,,,,,,,,,,,,,,0,7,7,7,1,Stimuli/trialListCubes2.xlsx,Instructions/instr_19.png,Progress: 144 of 192 trials completed,,
,,,,,,,18,female,A,2020-05-11_17h13.44.075,Remembering_Displays,2020.1.2,MacIntel,60,9,1,0.553755,1,1,1.384045,0,0,0,18,1,Stimuli/testStimuliSquare/6u_s_22_s_2D.png,Stimuli/testStimuliSquare/6u_s_22_s_2D.png,0,9,,,,,,,,,s,2D
,,,,,,,18,female,A,2020-05-11_17h13.44.075,Remembering_Displays,2020.1.2,MacIntel,60,9,0,0.697605,9,1,0.8351,0,1,1,9,1,Stimuli/testStimuliSquare/6u_s_23_2D.png,Stimuli/testStimuliSquare/6u_d_23_2D.png,1,1,,,,,,,,,c,2D
,,,,,,,18,female,A,2020-05-11_17h13.44.075,Remembering_Displays,2020.1.2,MacIntel,60,9,1,0.5701,9,1,1.11857,0,2,2,12,1,Stimuli/testStimuliSquare/6u_s_19_s_2D.png,Stimuli/testStimuliSquare/6u_s_19_s_2D.png,0,9,,,,,,,,,s,2D
,,,,,,,18,female,A,2020-05-11_17h13.44.075,Remembering_Displays,2020.1.2,MacIntel,60,1,1,0.576825,1,1,0.436285,0,3,3,17,1,Stimuli/testStimuliSquare/6u_s_21_s_2D.png,Stimuli/testStimuliSquare/6u_d_21_s_2D.png,1,1,,,,,,,,,s,2D
,,,,,,,18,female,A,2020-05-11_17h13.44.075,Remembering_Displays,2020.1.2,MacIntel,60,9,1,0.654855,1,1,1.2217,0,4,4,16,1,Stimuli/testStimuliSquare/6u_s_21_s_2D.png,Stimuli/testStimuliSquare/6u_s_21_s_2D.png,0,9,,,,,,,,,s,2D
,,,,,,,18,female,A,2020-05-11_17h13.44.075,Remembering_Displays,2020.1.2,MacIntel,60,9,1,0.93641,1,0,0.488725,0,5,5,14,1,Stimuli/testStimuliSquare/6u_s_20_s_2D.png,Stimuli/testStimuliSquare/6u_s_20_s_2D.png,0,9,,,,,,,,,s,2D
,,,,,,,18,female,A,2020-05-11_17h13.44.075,Remembering_Displays,2020.1.2,MacIntel,60,1,1,0.984185,9,1,1.30125,0,6,6,7,1,Stimuli/testStimuliSquare/6u_s_22_2D.png,Stimuli/testStimuliSquare/6u_d_22_2D.png,1,1,,,,,,,,,c,2D
,,,,,,,18,female,A,2020-05-11_17h13.44.075,Remembering_Displays,2020.1.2,MacIntel,60,,0,,9,1,8.152415,0,7,7,20,1,Stimuli/testStimuliSquare/6u_s_23_s_2D.png,Stimuli/testStimuliSquare/6u_s_23_s_2D.png,0,9,,,,,,,,,s,2D
,,,,,,,18,female,A,2020-05-11_17h13.44.075,Remembering_Displays,2020.1.2,MacIntel,60,9,1,0.58699,9,1,0.584165,0,8,8,0,1,Stimuli/testStimuliSquare/6u_s_19_2D.png,Stimuli/testStimuliSquare/6u_s_19_2D.png,0,9,,,,,,,,,c,2D
,,,,,,,18,female,A,2020-05-11_17h13.44.075,Remembering_Displays,2020.1.2,MacIntel,60,9,1,0.58805,1,1,0.48432,0,9,9,8,1,Stimuli/testStimuliSquare/6u_s_23_2D.png,Stimuli/testStimuliSquare/6u_s_23_2D.png,0,9,,,,,,,,,c,2D
,,,,,,,18,female,A,2020-05-11_17h13.44.075,Remembering_Displays,2020.1.2,MacIntel,60,9,1,0.60259,1,1,0.405455,0,10,10,4,1,Stimuli/testStimuliSquare/6u_s_21_2D.png,Stimuli/testStimuliSquare/6u_s_21_2D.png,0,9,,,,,,,,,c,2D
,,,,,,,18,female,A,2020-05-11_17h13.44.075,Remembering_Displays,2020.1.2,MacIntel,60,1,1,0.67608,9,1,0.651855,0,11,11,13,1,Stimuli/testStimuliSquare/6u_s_19_s_2D.png,Stimuli/testStimuliSquare/6u_d_19_s_2D.png,1,1,,,,,,,,,s,2D
,,,,,,,18,female,A,2020-05-11_17h13.44.075,Remembering_Displays,2020.1.2,MacIntel,60,1,1,0.599465,1,1,1.051425,0,12,12,1,1,Stimuli/testStimuliSquare/6u_s_19_2D.png,Stimuli/testStimuliSquare/6u_d_19_2D.png,1,1,,,,,,,,,c,2D
,,,,,,,18,female,A,2020-05-11_17h13.44.075,Remembering_Displays,2020.1.2,MacIntel,60,1,1,0.64235,9,1,0.9683,0,13,13,19,1,Stimuli/testStimuliSquare/6u_s_22_s_2D.png,Stimuli/testStimuliSquare/6u_d_22_s_2D.png,1,1,,,,,,,,,s,2D
,,,,,,,18,female,A,2020-05-11_17h13.44.075,Remembering_Displays,2020.1.2,MacIntel,60,1,1,1.27557,9,1,0.71836,0,14,14,23,1,Stimuli/testStimuliSquare/6u_s_24_s_2D.png,Stimuli/testStimuliSquare/6u_d_24_s_2D.png,1,1,,,,,,,,,s,2D
,,,,,,,18,female,A,2020-05-11_17h13.44.075,Remembering_Displays,2020.1.2,MacIntel,60,9,0,0.77537,1,1,0.80169,0,15,15,21,1,Stimuli/testStimuliSquare/6u_s_23_s_2D.png,Stimuli/testStimuliSquare/6u_d_23_s_2D.png,1,1,,,,,,,,,s,2D
,,,,,,,18,female,A,2020-05-11_17h13.44.075,Remembering_Displays,2020.1.2,MacIntel,60,1,1,0.734075,1,1,0.63515,0,16,16,5,1,Stimuli/testStimuliSquare/6u_s_21_2D.png,Stimuli/testStimuliSquare/6u_d_21_2D.png,1,1,,,,,,,,,c,2D
,,,,,,,18,female,A,2020-05-11_17h13.44.075,Remembering_Displays,2020.1.2,MacIntel,60,9,1,0.568595,1,1,1.401255,0,17,17,22,1,Stimuli/testStimuliSquare/6u_s_24_s_2D.png,Stimuli/testStimuliSquare/6u_s_24_s_2D.png,0,9,,,,,,,,,s,2D
,,,,,,,18,female,A,2020-05-11_17h13.44.075,Remembering_Displays,2020.1.2,MacIntel,60,1,0,1.002685,1,1,1.452245,0,18,18,10,1,Stimuli/testStimuliSquare/6u_s_24_2D.png,Stimuli/testStimuliSquare/6u_s_24_2D.png,0,9,,,,,,,,,c,2D
,,,,,,,18,female,A,2020-05-11_17h13.44.075,Remembering_Displays,2020.1.2,MacIntel,60,9,1,0.653505,1,1,0.801295,0,19,19,6,1,Stimuli/testStimuliSquare/6u_s_22_2D.png,Stimuli/testStimuliSquare/6u_s_22_2D.png,0,9,,,,,,,,,c,2D
,,,,,,,18,female,A,2020-05-11_17h13.44.075,Remembering_Displays,2020.1.2,MacIntel,60,1,1,0.710275,1,1,0.768375,0,20,20,15,1,Stimuli/testStimuliSquare/6u_s_20_s_2D.png,Stimuli/testStimuliSquare/6u_d_20_s_2D.png,1,1,,,,,,,,,s,2D
,,,,,,,18,female,A,2020-05-11_17h13.44.075,Remembering_Displays,2020.1.2,MacIntel,60,1,1,0.768195,9,1,1.05124,0,21,21,11,1,Stimuli/testStimuliSquare/6u_s_24_2D.png,Stimuli/testStimuliSquare/6u_d_24_2D.png,1,1,,,,,,,,,c,2D
,,,,,,,18,female,A,2020-05-11_17h13.44.075,Remembering_Displays,2020.1.2,MacIntel,60,1,1,0.568435,9,1,0.768385,0,22,22,3,1,Stimuli/testStimuliSquare/6u_s_20_2D.png,Stimuli/testStimuliSquare/6u_d_20_2D.png,1,1,,,,,,,,,c,2D
,,,,,,,18,female,A,2020-05-11_17h13.44.075,Remembering_Displays,2020.1.2,MacIntel,60,9,1,0.60576,9,1,0.51816,0,23,23,2,1,Stimuli/testStimuliSquare/6u_s_20_2D.png,Stimuli/testStimuliSquare/6u_s_20_2D.png,0,9,,,,,,,,,c,2D
,,,,,,,18,female,A,2020-05-11_17h13.44.075,Remembering_Displays,2020.1.2,MacIntel,60,,,,,,,,,,,,,,,,0,8,8,8,1,Stimuli/trialListSquares4.xlsx,Instructions/instr_18.png,Progress: 168 of 192 trials completed,,
,,,,,,,18,female,A,2020-05-11_17h13.44.075,Remembering_Displays,2020.1.2,MacIntel,60,1,1,0.61138,9,1,0.735415,0,0,0,23,1,Stimuli/testStimuliCube/6u_s_6_s.png,Stimuli/testStimuliCube/6u_d_6_s.png,1,1,,,,,,,,,s,3D
,,,,,,,18,female,A,2020-05-11_17h13.44.075,Remembering_Displays,2020.1.2,MacIntel,60,9,1,0.587115,1,1,0.7512,0,1,1,22,1,Stimuli/testStimuliCube/6u_s_6_s.png,Stimuli/testStimuliCube/6u_s_6_s.png,0,9,,,,,,,,,s,3D
,,,,,,,18,female,A,2020-05-11_17h13.44.075,Remembering_Displays,2020.1.2,MacIntel,60,1,1,0.74281,9,1,0.50162,0,2,2,17,1,Stimuli/testStimuliCube/6u_s_3_s.png,Stimuli/testStimuliCube/6u_d_3_s.png,1,1,,,,,,,,,s,3D
,,,,,,,18,female,A,2020-05-11_17h13.44.075,Remembering_Displays,2020.1.2,MacIntel,60,9,1,0.77105,1,1,0.684115,0,3,3,18,1,Stimuli/testStimuliCube/6u_s_4_s.png,Stimuli/testStimuliCube/6u_s_4_s.png,0,9,,,,,,,,,s,3D
,,,,,,,18,female,A,2020-05-11_17h13.44.075,Remembering_Displays,2020.1.2,MacIntel,60,1,0,1.035665,9,1,0.60138,0,4,4,8,1,Stimuli/testStimuliCube/6u_s_5.png,Stimuli/testStimuliCube/6u_s_5.png,0,9,,,,,,,,,c,3D
,,,,,,,18,female,A,2020-05-11_17h13.44.075,Remembering_Displays,2020.1.2,MacIntel,60,9,1,0.63573,9,1,0.77336,0,5,5,10,1,Stimuli/testStimuliCube/6u_s_6.png,Stimuli/testStimuliCube/6u_s_6.png,0,9,,,,,,,,,c,3D
,,,,,,,18,female,A,2020-05-11_17h13.44.075,Remembering_Displays,2020.1.2,MacIntel,60,1,1,0.95943,9,0,0.433815,0,6,6,5,1,Stimuli/testStimuliCube/6u_s_3.png,Stimuli/testStimuliCube/6u_d_3.png,1,1,,,,,,,,,c,3D
,,,,,,,18,female,A,2020-05-11_17h13.44.075,Remembering_Displays,2020.1.2,MacIntel,60,1,1,0.75926,1,1,0.890815,0,7,7,1,1,Stimuli/testStimuliCube/6u_s_1.png,Stimuli/testStimuliCube/6u_d_1.png,1,1,,,,,,,,,c,3D
,,,,,,,18,female,A,2020-05-11_17h13.44.075,Remembering_Displays,2020.1.2,MacIntel,60,1,1,0.677755,9,1,0.967515,0,8,8,13,1,Stimuli/testStimuliCube/6u_s_1_s.png,Stimuli/testStimuliCube/6u_d_1_s.png,1,1,,,,,,,,,s,3D
,,,,,,,18,female,A,2020-05-11_17h13.44.075,Remembering_Displays,2020.1.2,MacIntel,60,9,1,0.80295,1,1,1.65131,0,9,9,16,1,Stimuli/testStimuliCube/6u_s_3_s.png,Stimuli/testStimuliCube/6u_s_3_s.png,0,9,,,,,,,,,s,3D
,,,,,,,18,female,A,2020-05-11_17h13.44.075,Remembering_Displays,2020.1.2,MacIntel,60,1,0,0.65471,9,0,0.55426,0,10,10,12,1,Stimuli/testStimuliCube/6u_s_1_s.png,Stimuli/testStimuliCube/6u_s_1_s.png,0,9,,,,,,,,,s,3D
,,,,,,,18,female,A,2020-05-11_17h13.44.075,Remembering_Displays,2020.1.2,MacIntel,60,1,1,0.67499,1,1,1.66867,0,11,11,11,1,Stimuli/testStimuliCube/6u_s_6.png,Stimuli/testStimuliCube/6u_d_6.png,1,1,,,,,,,,,c,3D
,,,,,,,18,female,A,2020-05-11_17h13.44.075,Remembering_Displays,2020.1.2,MacIntel,60,9,0,0.861055,1,1,1.155975,0,12,12,21,1,Stimuli/testStimuliCube/6u_s_5_s.png,Stimuli/testStimuliCube/6u_d_5_s.png,1,1,,,,,,,,,s,3D
,,,,,,,18,female,A,2020-05-11_17h13.44.075,Remembering_Displays,2020.1.2,MacIntel,60,9,0,0.895695,1,1,0.75246,0,13,13,15,1,Stimuli/testStimuliCube/6u_s_2_s.png,Stimuli/testStimuliCube/6u_d_2_s.png,1,1,,,,,,,,,s,3D
,,,,,,,18,female,A,2020-05-11_17h13.44.075,Remembering_Displays,2020.1.2,MacIntel,60,1,1,0.743875,1,1,0.8045,0,14,14,19,1,Stimuli/testStimuliCube/6u_s_4_s.png,Stimuli/testStimuliCube/6u_d_4_s.png,1,1,,,,,,,,,s,3D
,,,,,,,18,female,A,2020-05-11_17h13.44.075,Remembering_Displays,2020.1.2,MacIntel,60,9,1,0.936675,1,1,1.38472,0,15,15,6,1,Stimuli/testStimuliCube/6u_s_4.png,Stimuli/testStimuliCube/6u_s_4.png,0,9,,,,,,,,,c,3D
,,,,,,,18,female,A,2020-05-11_17h13.44.075,Remembering_Displays,2020.1.2,MacIntel,60,1,0,0.688625,9,1,0.90461,0,16,16,14,1,Stimuli/testStimuliCube/6u_s_2_s.png,Stimuli/testStimuliCube/6u_s_2_s.png,0,9,,,,,,,,,s,3D
,,,,,,,18,female,A,2020-05-11_17h13.44.075,Remembering_Displays,2020.1.2,MacIntel,60,9,0,0.71057,9,1,0.837065,0,17,17,3,1,Stimuli/testStimuliCube/6u_s_2.png,Stimuli/testStimuliCube/6u_d_2.png,1,1,,,,,,,,,c,3D
,,,,,,,18,female,A,2020-05-11_17h13.44.075,Remembering_Displays,2020.1.2,MacIntel,60,9,1,0.685295,1,1,0.50208,0,18,18,0,1,Stimuli/testStimuliCube/6u_s_1.png,Stimuli/testStimuliCube/6u_s_1.png,0,9,,,,,,,,,c,3D
,,,,,,,18,female,A,2020-05-11_17h13.44.075,Remembering_Displays,2020.1.2,MacIntel,60,9,1,0.686435,1,1,0.455545,0,19,19,2,1,Stimuli/testStimuliCube/6u_s_2.png,Stimuli/testStimuliCube/6u_s_2.png,0,9,,,,,,,,,c,3D
,,,,,,,18,female,A,2020-05-11_17h13.44.075,Remembering_Displays,2020.1.2,MacIntel,60,1,1,0.70872,9,1,0.903635,0,20,20,7,1,Stimuli/testStimuliCube/6u_s_4.png,Stimuli/testStimuliCube/6u_d_4.png,1,1,,,,,,,,,c,3D
,,,,,,,18,female,A,2020-05-11_17h13.44.075,Remembering_Displays,2020.1.2,MacIntel,60,9,0,0.873315,9,1,0.66929,0,21,21,9,1,Stimuli/testStimuliCube/6u_s_5.png,Stimuli/testStimuliCube/6u_d_5.png,1,1,,,,,,,,,c,3D
,,,,,,,18,female,A,2020-05-11_17h13.44.075,Remembering_Displays,2020.1.2,MacIntel,60,9,1,0.57208,9,1,0.589095,0,22,22,20,1,Stimuli/testStimuliCube/6u_s_5_s.png,Stimuli/testStimuliCube/6u_s_5_s.png,0,9,,,,,,,,,s,3D
,,,,,,,18,female,A,2020-05-11_17h13.44.075,Remembering_Displays,2020.1.2,MacIntel,60,9,1,0.716775,9,1,2.50134,0,23,23,4,1,Stimuli/testStimuliCube/6u_s_3.png,Stimuli/testStimuliCube/6u_s_3.png,0,9,,,,,,,,,c,3D