instr_Loop.thisRepN,instr_Loop.thisTrialN,instr_Loop.thisN,instr_Loop.thisIndex,instr_Loop.ran,instructionImage,time,age,sex (female/male),order,date,expName,psychopyVersion,OS,frameRate,struc_judge_respond.keys,struc_judge_respond.corr,struc_judge_respond.rt,dual_respond.keys,dual_respond.corr,dual_respond.rt,trials.thisRepN,trials.thisTrialN,trials.thisN,trials.thisIndex,trials.ran,stim1,stim2,isAnyChange,corrAns,selectBlock.thisRepN,selectBlock.thisTrialN,selectBlock.thisN,selectBlock.thisIndex,selectBlock.ran,condsFile,condsImage,remaining,connected,dimensionality
0,0,0,0,1,Instructions/consent.png,3,18,female,A,2020-05-11_18h33.48.340,Remembering_Displays,2020.1.2,MacIntel,60,,,,,,,,,,,,,,,,,,,,,,,,,
0,1,1,1,1,Instructions/instr_1.png,5,18,female,A,2020-05-11_18h33.48.340,Remembering_Displays,2020.1.2,MacIntel,60,,,,,,,,,,,,,,,,,,,,,,,,,
0,2,2,2,1,Instructions/instr_2.png,3,18,female,A,2020-05-11_18h33.48.340,Remembering_Displays,2020.1.2,MacIntel,60,,,,,,,,,,,,,,,,,,,,,,,,,
0,3,3,3,1,Instructions/instr_3.png,5,18,female,A,2020-05-11_18h33.48.340,Remembering_Displays,2020.1.2,MacIntel,60,,,,,,,,,,,,,,,,,,,,,,,,,
0,4,4,4,1,Instructions/instr_4.png,1,18,female,A,2020-05-11_18h33.48.340,Remembering_Displays,2020.1.2,MacIntel,60,,,,,,,,,,,,,,,,,,,,,,,,,
0,5,5,5,1,Instructions/instr_5.png,1,18,female,A,2020-05-11_18h33.48.340,Remembering_Displays,2020.1.2,MacIntel,60,,,,,,,,,,,,,,,,,,,,,,,,,
0,6,6,6,1,Instructions/instr_6.png,1,18,female,A,2020-05-11_18h33.48.340,Remembering_Displays,2020.1.2,MacIntel,60,,,,,,,,,,,,,,,,,,,,,,,,,
0,7,7,7,1,Instructions/instr_7.png,1,18,female,A,2020-05-11_18h33.48.340,Remembering_Displays,2020.1.2,MacIntel,60,,,,,,,,,,,,,,,,,,,,,,,,,
0,8,8,8,1,Instructions/instr_8.png,3,18,female,A,2020-05-11_18h33.48.340,Remembering_Displays,2020.1.2,MacIntel,60,,,,,,,,,,,,,,,,,,,,,,,,,
0,9,9,9,1,Instructions/instr_9.png,3,18,female,A,2020-05-11_18h33.48.340,Remembering_Displays,2020.1.2,MacIntel,60,,,,,,,,,,,,,,,,,,,,,,,,,
0,10,10,10,1,Instructions/instr_10.png,3,18,female,A,2020-05-11_18h33.48.340,Remembering_Displays,2020.1.2,MacIntel,60,,,,,,,,,,,,,,,,,,,,,,,,,
0,11,11,11,1,Instructions/instr_11.png,3,18,female,A,2020-05-11_18h33.48.340,Remembering_Displays,2020.1.2,MacIntel,60,,,,,,,,,,,,,,,,,,,,,,,,,
0,12,12,12,1,Instructions/instr_12.png,3,18,female,A,2020-05-11_18h33.48.340,Remembering_Displays,2020.1.2,MacIntel,60,,,,,,,,,,,,,,,,,,,,,,,,,
0,13,13,13,1,Instructions/instr_13.png,3,18,female,A,2020-05-11_18h33.48.340,Remembering_Displays,2020.1.2,MacIntel,60,,,,,,,,,,,,,,,,,,,,,,,,,
0,14,14,14,1,Instructions/instr_14.png,3,18,female,A,2020-05-11_18h33.48.340,Remembering_Displays,2020.1.2,MacIntel,60,,,,,,,,,,,,,,,,,,,,,,,,,
0,15,15,15,1,Instructions/instr_15.png,3,18,female,A,2020-05-11_18h33.48.340,Remembering_Displays,2020.1.2,MacIntel,60,,,,,,,,,,,,,,,,,,,,,,,,,
0,16,16,16,1,Instructions/instr_16.png,5,18,female,A,2020-05-11_18h33.48.340,Remembering_Displays,2020.1.2,MacIntel,60,,,,,,,,,,,,,,,,,,,,,,,,,
,,,,,,,18,female,A,2020-05-11_18h33.48.340,Remembering_Displays,2020.1.2,MacIntel,60,9,1,1.42177,9,1,13.30338,0,0,0,0,1,Stimuli/practiceStimuliSquare/practice1_s.png,Stimuli/practiceStimuliSquare/practice1_s.png,0,9,,,,,,,,,,
,,,,,,,18,female,A,2020-05-11_18h33.48.340,Remembering_Displays,2020.1.2,MacIntel,60,,0,,1,1,4.01592,0,1,1,2,1,Stimuli/practiceStimuliSquare/practice3_s.png,Stimuli/practiceStimuliSquare/practice3_s.png,0,9,,,,,,,,,,
,,,,,,,18,female,A,2020-05-11_18h33.48.340,Remembering_Displays,2020.1.2,MacIntel,60,1,1,0.966855,1,1,2.741795,0,2,2,4,1,Stimuli/practiceStimuliSquare/practice1_s.png,Stimuli/practiceStimuliSquare/practice1_d.png,1,1,,,,,,,,,,
,,,,,,,18,female,A,2020-05-11_18h33.48.340,Remembering_Displays,2020.1.2,MacIntel,60,9,1,1.084475,1,1,1.47433,0,3,3,5,1,Stimuli/practiceStimuliSquare/practice2_s.png,Stimuli/practiceStimuliSquare/practice2_s.png,0,9,,,,,,,,,,
,,,,,,,18,female,A,2020-05-11_18h33.48.340,Remembering_Displays,2020.1.2,MacIntel,60,1,1,0.9735,9,1,1.38774,0,4,4,3,1,Stimuli/practiceStimuliSquare/practice4_s.png,Stimuli/practiceStimuliSquare/practice4_d.png,1,1,,,,,,,,,,
,,,,,,,18,female,A,2020-05-11_18h33.48.340,Remembering_Displays,2020.1.2,MacIntel,60,1,1,0.970175,9,1,1.23787,0,5,5,1,1,Stimuli/practiceStimuliSquare/practice2_s.png,Stimuli/practiceStimuliSquare/practice2_d.png,1,1,,,,,,,,,,
,,,,,,,18,female,A,2020-05-11_18h33.48.340,Remembering_Displays,2020.1.2,MacIntel,60,1,1,0.81213,9,1,1.17598,0,6,6,6,1,Stimuli/practiceStimuliSquare/practice3_s.png,Stimuli/practiceStimuliSquare/practice3_d.png,1,1,,,,,,,,,,
,,,,,,,18,female,A,2020-05-11_18h33.48.340,Remembering_Displays,2020.1.2,MacIntel,60,1,0,0.654355,9,1,4.402885,0,7,7,7,1,Stimuli/practiceStimuliSquare/practice4_s.png,Stimuli/practiceStimuliSquare/practice4_s.png,0,9,,,,,,,,,,
,,,,,,,18,female,A,2020-05-11_18h33.48.340,Remembering_Displays,2020.1.2,MacIntel,60,,,,,,,,,,,,,,,,0,0,0,0,1,Stimuli/practiceListSquares.xlsx,Instructions/instr_practice_A.png,Practice trials completed,,
,,,,,,,18,female,A,2020-05-11_18h33.48.340,Remembering_Displays,2020.1.2,MacIntel,60,9,0,1.09535,9,1,0.80451,0,0,0,15,1,Stimuli/testStimuliSquare/6u_s_2_s_2D.png,Stimuli/testStimuliSquare/6u_d_2_s_2D.png,1,1,,,,,,,,,s,2D
,,,,,,,18,female,A,2020-05-11_18h33.48.340,Remembering_Displays,2020.1.2,MacIntel,60,1,1,0.77577,1,1,1.170915,0,1,1,19,1,Stimuli/testStimuliSquare/6u_s_4_s_2D.png,Stimuli/testStimuliSquare/6u_d_4_s_2D.png,1,1,,,,,,,,,s,2D
,,,,,,,18,female,A,2020-05-11_18h33.48.340,Remembering_Displays,2020.1.2,MacIntel,60,1,1,0.75848,9,1,0.738895,0,2,2,11,1,Stimuli/testStimuliSquare/6u_s_6_2D.png,Stimuli/testStimuliSquare/6u_d_6_2D.png,1,1,,,,,,,,,c,2D
,,,,,,,18,female,A,2020-05-11_18h33.48.340,Remembering_Displays,2020.1.2,MacIntel,60,1,1,0.773995,1,1,1.30353,0,3,3,23,1,Stimuli/testStimuliSquare/6u_s_6_s_2D.png,Stimuli/testStimuliSquare/6u_d_6_s_2D.png,1,1,,,,,,,,,s,2D
,,,,,,,18,female,A,2020-05-11_18h33.48.340,Remembering_Displays,2020.1.2,MacIntel,60,1,1,0.69136,9,1,0.77002,0,4,4,7,1,Stimuli/testStimuliSquare/6u_s_4_2D.png,Stimuli/testStimuliSquare/6u_d_4_2D.png,1,1,,,,,,,,,c,2D
,,,,,,,18,female,A,2020-05-11_18h33.48.340,Remembering_Displays,2020.1.2,MacIntel,60,,0,,9,1,0.957855,0,5,5,18,1,Stimuli/testStimuliSquare/6u_s_4_s_2D.png,Stimuli/testStimuliSquare/6u_s_4_s_2D.png,0,9,,,,,,,,,s,2D
,,,,,,,18,female,A,2020-05-11_18h33.48.340,Remembering_Displays,2020.1.2,MacIntel,60,9,1,0.935955,9,1,0.45197,0,6,6,20,1,Stimuli/testStimuliSquare/6u_s_5_s_2D.png,Stimuli/testStimuliSquare/6u_s_5_s_2D.png,0,9,,,,,,,,,s,2D
,,,,,,,18,female,A,2020-05-11_18h33.48.340,Remembering_Displays,2020.1.2,MacIntel,60,1,0,0.834825,1,1,1.22089,0,7,7,0,1,Stimuli/testStimuliSquare/6u_s_1_2D.png,Stimuli/testStimuliSquare/6u_s_1_2D.png,0,9,,,,,,,,,c,2D
,,,,,,,18,female,A,2020-05-11_18h33.48.340,Remembering_Displays,2020.1.2,MacIntel,60,,0,,9,1,0.68623,0,8,8,6,1,Stimuli/testStimuliSquare/6u_s_4_2D.png,Stimuli/testStimuliSquare/6u_s_4_2D.png,0,9,,,,,,,,,c,2D
,,,,,,,18,female,A,2020-05-11_18h33.48.340,Remembering_Displays,2020.1.2,MacIntel,60,1,1,0.708555,9,1,0.535525,0,9,9,21,1,Stimuli/testStimuliSquare/6u_s_5_s_2D.png,Stimuli/testStimuliSquare/6u_d_5_s_2D.png,1,1,,,,,,,,,s,2D
,,,,,,,18,female,A,2020-05-11_18h33.48.340,Remembering_Displays,2020.1.2,MacIntel,60,1,0,0.554755,1,1,2.925695,0,10,10,4,1,Stimuli/testStimuliSquare/6u_s_3_2D.png,Stimuli/testStimuliSquare/6u_s_3_2D.png,0,9,,,,,,,,,c,2D
,,,,,,,18,female,A,2020-05-11_18h33.48.340,Remembering_Displays,2020.1.2,MacIntel,60,9,1,0.456055,1,1,1.52411,0,11,11,2,1,Stimuli/testStimuliSquare/6u_s_2_2D.png,Stimuli/testStimuliSquare/6u_s_2_2D.png,0,9,,,,,,,,,c,2D
,,,,,,,18,female,A,2020-05-11_18h33.48.340,Remembering_Displays,2020.1.2,MacIntel,60,1,1,0.78669,9,1,1.38754,0,12,12,5,1,Stimuli/testStimuliSquare/6u_s_3_2D.png,Stimuli/testStimuliSquare/6u_d_3_2D.png,1,1,,,,,,,,,c,2D
,,,,,,,18,female,A,2020-05-11_18h33.48.340,Remembering_Displays,2020.1.2,MacIntel,60,1,1,0.936505,1,1,1.473155,0,13,13,3,1,Stimuli/testStimuliSquare/6u_s_2_2D.png,Stimuli/testStimuliSquare/6u_d_2_2D.png,1,1,,,,,,,,,c,2D
,,,,,,,18,female,A,2020-05-11_18h33.48.340,Remembering_Displays,2020.1.2,MacIntel,60,9,1,1.23964,1,1,0.740065,0,14,14,14,1,Stimuli/testStimuliSquare/6u_s_2_s_2D.png,Stimuli/testStimuliSquare/6u_s_2_s_2D.png,0,9,,,,,,,,,s,2D
,,,,,,,18,female,A,2020-05-11_18h33.48.340,Remembering_Displays,2020.1.2,MacIntel,60,9,0,1.375965,9,1,1.33778,0,15,15,1,1,Stimuli/testStimuliSquare/6u_s_1_2D.png,Stimuli/testStimuliSquare/6u_d_1_2D.png,1,1,,,,,,,,,c,2D
,,,,,,,18,female,A,2020-05-11_18h33.48.340,Remembering_Displays,2020.1.2,MacIntel,60,1,1,0.977735,1,1,0.92296,0,16,16,13,1,Stimuli/testStimuliSquare/6u_s_1_s_2D.png,Stimuli/testStimuliSquare/6u_d_1_s_2D.png,1,1,,,,,,,,,s,2D
,,,,,,,18,female,A,2020-05-11_18h33.48.340,Remembering_Displays,2020.1.2,MacIntel,60,9,1,0.74264,1,1,1.093595,0,17,17,22,1,Stimuli/testStimuliSquare/6u_s_6_s_2D.png,Stimuli/testStimuliSquare/6u_s_6_s_2D.png,0,9,,,,,,,,,s,2D
,,,,,,,18,female,A,2020-05-11_18h33.48.340,Remembering_Displays,2020.1.2,MacIntel,60,9,0,0.98108,9,1,0.85559,0,18,18,17,1,Stimuli/testStimuliSquare/6u_s_3_s_2D.png,Stimuli/testStimuliSquare/6u_d_3_s_2D.png,1,1,,,,,,,,,s,2D
,,,,,,,18,female,A,2020-05-11_18h33.48.340,Remembering_Displays,2020.1.2,MacIntel,60,1,0,1.38962,9,0,8.625555,0,19,19,10,1,Stimuli/testStimuliSquare/6u_s_6_2D.png,Stimuli/testStimuliSquare/6u_s_6_2D.png,0,9,,,,,,,,,c,2D
,,,,,,,18,female,A,2020-05-11_18h33.48.340,Remembering_Displays,2020.1.2,MacIntel,60,1,1,0.778275,1,0,2.881285,0,20,20,9,1,Stimuli/testStimuliSquare/6u_s_5_2D.png,Stimuli/testStimuliSquare/6u_d_5_2D.png,1,1,,,,,,,,,c,2D
,,,,,,,18,female,A,2020-05-11_18h33.48.340,Remembering_Displays,2020.1.2,MacIntel,60,1,0,0.670495,9,1,0.90324,0,21,21,8,1,Stimuli/testStimuliSquare/6u_s_5_2D.png,Stimuli/testStimuliSquare/6u_s_5_2D.png,0,9,,,,,,,,,c,2D
,,,,,,,18,female,A,2020-05-11_18h33.48.340,Remembering_Displays,2020.1.2,MacIntel,60,9,1,0.907795,9,1,0.870275,0,22,22,16,1,Stimuli/testStimuliSquare/6u_s_3_s_2D.png,Stimuli/testStimuliSquare/6u_s_3_s_2D.png,0,9,,,,,,,,,s,2D
,,,,,,,18,female,A,2020-05-11_18h33.48.340,Remembering_Displays,2020.1.2,MacIntel,60,9,1,0.471615,9,1,0.503285,0,23,23,12,1,Stimuli/testStimuliSquare/6u_s_1_s_2D.png,Stimuli/testStimuliSquare/6u_s_1_s_2D.png,0,9,,,,,,,,,s,2D
,,,,,,,18,female,A,2020-05-11_18h33.48.340,Remembering_Displays,2020.1.2,MacIntel,60,,,,,,,,,,,,,,,,0,1,1,1,1,Stimuli/trialListSquares1.xlsx,Instructions/instr_18.png,Progress: 24 of 192 trials completed,,
,,,,,,,18,female,A,2020-05-11_18h33.48.340,Remembering_Displays,2020.1.2,MacIntel,60,,0,,1,1,1.18731,0,0,0,0,1,Stimuli/practiceStimuliCube/practice1_s.png,Stimuli/practiceStimuliCube/practice1_s.png,0,9,,,,,,,,,,
,,,,,,,18,female,A,2020-05-11_18h33.48.340,Remembering_Displays,2020.1.2,MacIntel,60,9,0,0.793195,1,1,1.961785,0,1,1,6,1,Stimuli/practiceStimuliCube/practice3_s.png,Stimuli/practiceStimuliCube/practice3_d.png,1,1,,,,,,,,,,
,,,,,,,18,female,A,2020-05-11_18h33.48.340,Remembering_Displays,2020.1.2,MacIntel,60,1,1,0.924675,9,1,1.65472,0,2,2,3,1,Stimuli/practiceStimuliCube/practice4_s.png,Stimuli/practiceStimuliCube/practice4_d.png,1,1,,,,,,,,,,
,,,,,,,18,female,A,2020-05-11_18h33.48.340,Remembering_Displays,2020.1.2,MacIntel,60,9,1,0.867515,1,1,0.6531,0,3,3,5,1,Stimuli/practiceStimuliCube/practice2_s.png,Stimuli/practiceStimuliCube/practice2_s.png,0,9,,,,,,,,,,
,,,,,,,18,female,A,2020-05-11_18h33.48.340,Remembering_Displays,2020.1.2,MacIntel,60,9,1,1.1657,1,1,1.511505,0,4,4,2,1,Stimuli/practiceStimuliCube/practice3_s.png,Stimuli/practiceStimuliCube/practice3_s.png,0,9,,,,,,,,,,
,,,,,,,18,female,A,2020-05-11_18h33.48.340,Remembering_Displays,2020.1.2,MacIntel,60,1,1,1.019915,1,1,1.04204,0,5,5,1,1,Stimuli/practiceStimuliCube/practice2_s.png,Stimuli/practiceStimuliCube/practice2_d.png,1,1,,,,,,,,,,
,,,,,,,18,female,A,2020-05-11_18h33.48.340,Remembering_Displays,2020.1.2,MacIntel,60,9,1,1.15342,9,1,1.020055,0,6,6,7,1,Stimuli/practiceStimuliCube/practice4_s.png,Stimuli/practiceStimuliCube/practice4_s.png,0,9,,,,,,,,,,
,,,,,,,18,female,A,2020-05-11_18h33.48.340,Remembering_Displays,2020.1.2,MacIntel,60,1,1,0.982505,9,1,0.56905,0,7,7,4,1,Stimuli/practiceStimuliCube/practice1_s.png,Stimuli/practiceStimuliCube/practice1_d.png,1,1,,,,,,,,,,
,,,,,,,18,female,A,2020-05-11_18h33.48.340,Remembering_Displays,2020.1.2,MacIntel,60,,,,,,,,,,,,,,,,0,2,2,2,1,Stimuli/practiceListCubes.xlsx,Instructions/instr_practice_B.png,Practice trials completed,,
,,,,,,,18,female,A,2020-05-11_18h33.48.340,Remembering_Displays,2020.1.2,MacIntel,60,1,1,1.072325,1,1,0.71952,0,0,0,21,1,Stimuli/testStimuliCube/6u_s_23_s.png,Stimuli/testStimuliCube/6u_d_23_s.png,1,1,,,,,,,,,s,3D
,,,,,,,18,female,A,2020-05-11_18h33.48.340,Remembering_Displays,2020.1.2,MacIntel,60,1,0,0.960395,9,1,0.6875,0,1,1,2,1,Stimuli/testStimuliCube/6u_s_20.png,Stimuli/testStimuliCube/6u_s_20.png,0,9,,,,,,,,,c,3D
,,,,,,,18,female,A,2020-05-11_18h33.48.340,Remembering_Displays,2020.1.2,MacIntel,60,9,1,1.132515,1,1,0.51884,0,2,2,10,1,Stimuli/testStimuliCube/6u_s_24.png,Stimuli/testStimuliCube/6u_s_24.png,0,9,,,,,,,,,c,3D
,,,,,,,18,female,A,2020-05-11_18h33.48.340,Remembering_Displays,2020.1.2,MacIntel,60,1,1,0.81446,1,1,0.736455,0,3,3,17,1,Stimuli/testStimuliCube/6u_s_21_s.png,Stimuli/testStimuliCube/6u_d_21_s.png,1,1,,,,,,,,,s,3D
,,,,,,,18,female,A,2020-05-11_18h33.48.340,Remembering_Displays,2020.1.2,MacIntel,60,9,1,1.205385,1,1,0.61917,0,4,4,22,1,Stimuli/testStimuliCube/6u_s_24_s.png,Stimuli/testStimuliCube/6u_s_24_s.png,0,9,,,,,,,,,s,3D
,,,,,,,18,female,A,2020-05-11_18h33.48.340,Remembering_Displays,2020.1.2,MacIntel,60,9,1,0.88652,1,1,0.652285,0,5,5,16,1,Stimuli/testStimuliCube/6u_s_21_s.png,Stimuli/testStimuliCube/6u_s_21_s.png,0,9,,,,,,,,,s,3D
,,,,,,,18,female,A,2020-05-11_18h33.48.340,Remembering_Displays,2020.1.2,MacIntel,60,9,0,0.41183,9,1,1.308635,0,6,6,11,1,Stimuli/testStimuliCube/6u_s_24.png,Stimuli/testStimuliCube/6u_d_24.png,1,1,,,,,,,,,c,3D
,,,,,,,18,female,A,2020-05-11_18h33.48.340,Remembering_Displays,2020.1.2,MacIntel,60,9,1,0.80265,1,1,2.147395,0,7,7,12,1,Stimuli/testStimuliCube/6u_s_19_s.png,Stimuli/testStimuliCube/6u_s_19_s.png,0,9,,,,,,,,,s,3D
,,,,,,,18,female,A,2020-05-11_18h33.48.340,Remembering_Displays,2020.1.2,MacIntel,60,9,1,1.045835,1,1,0.554865,0,8,8,20,1,Stimuli/testStimuliCube/6u_s_23_s.png,Stimuli/testStimuliCube/6u_s_23_s.png,0,9,,,,,,,,,s,3D
,,,,,,,18,female,A,2020-05-11_18h33.48.340,Remembering_Displays,2020.1.2,MacIntel,60,1,1,1.39969,1,1,1.08705,0,9,9,19,1,Stimuli/testStimuliCube/6u_s_22_s.png,Stimuli/testStimuliCube/6u_d_22_s.png,1,1,,,,,,,,,s,3D
,,,,,,,18,female,A,2020-05-11_18h33.48.340,Remembering_Displays,2020.1.2,MacIntel,60,9,1,0.657455,1,1,0.65881,0,10,10,14,1,Stimuli/testStimuliCube/6u_s_20_s.png,Stimuli/testStimuliCube/6u_s_20_s.png,0,9,,,,,,,,,s,3D
,,,,,,,18,female,A,2020-05-11_18h33.48.340,Remembering_Displays,2020.1.2,MacIntel,60,1,1,0.99233,9,1,2.2575,0,11,11,1,1,Stimuli/testStimuliCube/6u_s_19.png,Stimuli/testStimuliCube/6u_d_19.png,1,1,,,,,,,,,c,3D
,,,,,,,18,female,A,2020-05-11_18h33.48.340,Remembering_Displays,2020.1.2,MacIntel,60,1,0,0.93472,1,1,1.134615,0,12,12,4,1,Stimuli/testStimuliCube/6u_s_21.png,Stimuli/testStimuliCube/6u_s_21.png,0,9,,,,,,,,,c,3D
,,,,,,,18,female,A,2020-05-11_18h33.48.340,Remembering_Displays,2020.1.2,MacIntel,60,9,0,0.87197,1,0,1.7425,0,13,13,5,1,Stimuli/testStimuliCube/6u_s_21.png,Stimuli/testStimuliCube/6u_d_21.png,1,1,,,,,,,,,c,3D
,,,,,,,18,female,A,2020-05-11_18h33.48.340,Remembering_Displays,2020.1.2,MacIntel,60,1,1,0.956615,1,1,1.471525,0,14,14,3,1,Stimuli/testStimuliCube/6u_s_20.png,Stimuli/testStimuliCube/6u_d_20.png,1,1,,,,,,,,,c,3D
,,,,,,,18,female,A,2020-05-11_18h33.48.340,Remembering_Displays,2020.1.2,MacIntel,60,9,1,0.98819,1,1,0.629585,0,15,15,18,1,Stimuli/testStimuliCube/6u_s_22_s.png,Stimuli/testStimuliCube/6u_s_22_s.png,0,9,,,,,,,,,s,3D
,,,,,,,18,female,A,2020-05-11_18h33.48.340,Remembering_Displays,2020.1.2,MacIntel,60,9,0,0.533195,9,1,1.46099,0,16,16,9,1,Stimuli/testStimuliCube/6u_s_23.png,Stimuli/testStimuliCube/6u_d_23.png,1,1,,,,,,,,,c,3D
,,,,,,,18,female,A,2020-05-11_18h33.48.340,Remembering_Displays,2020.1.2,MacIntel,60,9,1,0.867535,1,1,0.58598,0,17,17,6,1,Stimuli/testStimuliCube/6u_s_22.png,Stimuli/testStimuliCube/6u_s_22.png,0,9,,,,,,,,,c,3D
,,,,,,,18,female,A,2020-05-11_18h33.48.340,Remembering_Displays,2020.1.2,MacIntel,60,1,1,1.0644,9,1,2.224625,0,18,18,13,1,Stimuli/testStimuliCube/6u_s_19_s.png,Stimuli/testStimuliCube/6u_d_19_s.png,1,1,,,,,,,,,s,3D
,,,,,,,18,female,A,2020-05-11_18h33.48.340,Remembering_Displays,2020.1.2,MacIntel,60,1,1,0.769225,9,1,0.519205,0,19,19,15,1,Stimuli/testStimuliCube/6u_s_20_s.png,Stimuli/testStimuliCube/6u_d_20_s.png,1,1,,,,,,,,,s,3D
,,,,,,,18,female,A,2020-05-11_18h33.48.340,Remembering_Displays,2020.1.2,MacIntel,60,1,1,1.10358,1,1,0.886535,0,20,20,7,1,Stimuli/testStimuliCube/6u_s_22.png,Stimuli/testStimuliCube/6u_d_22.png,1,1,,,,,,,,,c,3D
,,,,,,,18,female,A,2020-05-11_18h33.48.340,Remembering_Displays,2020.1.2,MacIntel,60,9,1,1.0666,1,1,0.453945,0,21,21,8,1,Stimuli/testStimuliCube/6u_s_23.png,Stimuli/testStimuliCube/6u_s_23.png,0,9,,,,,,,,,c,3D
,,,,,,,18,female,A,2020-05-11_18h33.48.340,Remembering_Displays,2020.1.2,MacIntel,60,1,1,1.107855,1,1,0.688825,0,22,22,23,1,Stimuli/testStimuliCube/6u_s_24_s.png,Stimuli/testStimuliCube/6u_d_24_s.png,1,1,,,,,,,,,s,3D
,,,,,,,18,female,A,2020-05-11_18h33.48.340,Remembering_Displays,2020.1.2,MacIntel,60,9,1,1.398725,9,1,1.00058,0,23,23,0,1,Stimuli/testStimuliCube/6u_s_19.png,Stimuli/testStimuliCube/6u_s_19.png,0,9,,,,,,,,,c,3D
,,,,,,,18,female,A,2020-05-11_18h33.48.340,Remembering_Displays,2020.1.2,MacIntel,60,,,,,,,,,,,,,,,,0,3,3,3,1,Stimuli/trialListCubes4.xlsx,Instructions/instr_19.png,Progress: 48 of 192 trials completed,,
,,,,,,,18,female,A,2020-05-11_18h33.48.340,Remembering_Displays,2020.1.2,MacIntel,60,9,1,0.871385,1,1,0.59082,0,0,0,10,1,Stimuli/testStimuliSquare/6u_s_12_2D.png,Stimuli/testStimuliSquare/6u_s_12_2D.png,0,9,,,,,,,,,c,2D
,,,,,,,18,female,A,2020-05-11_18h33.48.340,Remembering_Displays,2020.1.2,MacIntel,60,1,1,1.10205,9,1,0.91141,0,1,1,3,1,Stimuli/testStimuliSquare/6u_s_8_2D.png,Stimuli/testStimuliSquare/6u_d_8_2D.png,1,1,,,,,,,,,c,2D
,,,,,,,18,female,A,2020-05-11_18h33.48.340,Remembering_Displays,2020.1.2,MacIntel,60,1,1,0.91065,1,1,0.63495,0,2,2,13,1,Stimuli/testStimuliSquare/6u_s_7_s_2D.png,Stimuli/testStimuliSquare/6u_d_7_s_2D.png,1,1,,,,,,,,,s,2D
,,,,,,,18,female,A,2020-05-11_18h33.48.340,Remembering_Displays,2020.1.2,MacIntel,60,9,1,0.80244,1,1,0.856945,0,3,3,14,1,Stimuli/testStimuliSquare/6u_s_8_s_2D.png,Stimuli/testStimuliSquare/6u_s_8_s_2D.png,0,9,,,,,,,,,s,2D
,,,,,,,18,female,A,2020-05-11_18h33.48.340,Remembering_Displays,2020.1.2,MacIntel,60,9,0,0.969865,9,0,1.022805,0,4,4,21,1,Stimuli/testStimuliSquare/6u_s_11_s_2D.png,Stimuli/testStimuliSquare/6u_d_11_s_2D.png,1,1,,,,,,,,,s,2D
,,,,,,,18,female,A,2020-05-11_18h33.48.340,Remembering_Displays,2020.1.2,MacIntel,60,9,0,0.83919,1,0,0.9265,0,5,5,17,1,Stimuli/testStimuliSquare/6u_s_9_s_2D.png,Stimuli/testStimuliSquare/6u_d_9_s_2D.png,1,1,,,,,,,,,s,2D
,,,,,,,18,female,A,2020-05-11_18h33.48.340,Remembering_Displays,2020.1.2,MacIntel,60,1,1,0.948065,1,1,0.98728,0,6,6,5,1,Stimuli/testStimuliSquare/6u_s_9_2D.png,Stimuli/testStimuliSquare/6u_d_9_2D.png,1,1,,,,,,,,,c,2D
,,,,,,,18,female,A,2020-05-11_18h33.48.340,Remembering_Displays,2020.1.2,MacIntel,60,1,1,0.97384,9,1,1.32108,0,7,7,9,1,Stimuli/testStimuliSquare/6u_s_11_2D.png,Stimuli/testStimuliSquare/6u_d_11_2D.png,1,1,,,,,,,,,c,2D
,,,,,,,18,female,A,2020-05-11_18h33.48.340,Remembering_Displays,2020.1.2,MacIntel,60,9,1,1.1308,1,1,0.690355,0,8,8,6,1,Stimuli/testStimuliSquare/6u_s_10_2D.png,Stimuli/testStimuliSquare/6u_s_10_2D.png,0,9,,,,,,,,,c,2D
,,,,,,,18,female,A,2020-05-11_18h33.48.340,Remembering_Displays,2020.1.2,MacIntel,60,9,1,0.81966,1,1,0.707755,0,9,9,2,1,Stimuli/testStimuliSquare/6u_s_8_2D.png,Stimuli/testStimuliSquare/6u_s_8_2D.png,0,9,,,,,,,,,c,2D
,,,,,,,18,female,A,2020-05-11_18h33.48.340,Remembering_Displays,2020.1.2,MacIntel,60,9,1,0.99065,1,0,0.6398,0,10,10,20,1,Stimuli/testStimuliSquare/6u_s_11_s_2D.png,Stimuli/testStimuliSquare/6u_s_11_s_2D.png,0,9,,,,,,,,,s,2D
,,,,,,,18,female,A,2020-05-11_18h33.48.340,Remembering_Displays,2020.1.2,MacIntel,60,9,1,0.60727,1,1,0.92063,0,11,11,0,1,Stimuli/testStimuliSquare/6u_s_7_2D.png,Stimuli/testStimuliSquare/6u_s_7_2D.png,0,9,,,,,,,,,c,2D
,,,,,,,18,female,A,2020-05-11_18h33.48.340,Remembering_Displays,2020.1.2,MacIntel,60,9,1,1.31992,1,1,1.491655,0,12,12,18,1,Stimuli/testStimuliSquare/6u_s_10_s_2D.png,Stimuli/testStimuliSquare/6u_s_10_s_2D.png,0,9,,,,,,,,,s,2D
,,,,,,,18,female,A,2020-05-11_18h33.48.340,Remembering_Displays,2020.1.2,MacIntel,60,9,0,0.83942,9,1,1.05343,0,13,13,23,1,Stimuli/testStimuliSquare/6u_s_12_s_2D.png,Stimuli/testStimuliSquare/6u_d_12_s_2D.png,1,1,,,,,,,,,s,2D
,,,,,,,18,female,A,2020-05-11_18h33.48.340,Remembering_Displays,2020.1.2,MacIntel,60,9,1,0.56208,9,1,0.84353,0,14,14,12,1,Stimuli/testStimuliSquare/6u_s_7_s_2D.png,Stimuli/testStimuliSquare/6u_s_7_s_2D.png,0,9,,,,,,,,,s,2D
,,,,,,,18,female,A,2020-05-11_18h33.48.340,Remembering_Displays,2020.1.2,MacIntel,60,1,1,0.75735,9,1,1.312145,0,15,15,19,1,Stimuli/testStimuliSquare/6u_s_10_s_2D.png,Stimuli/testStimuliSquare/6u_d_10_s_2D.png,1,1,,,,,,,,,s,2D
,,,,,,,18,female,A,2020-05-11_18h33.48.340,Remembering_Displays,2020.1.2,MacIntel,60,9,1,0.931325,1,1,0.992295,0,16,16,8,1,Stimuli/testStimuliSquare/6u_s_11_2D.png,Stimuli/testStimuliSquare/6u_s_11_2D.png,0,9,,,,,,,,,c,2D
,,,,,,,18,female,A,2020-05-11_18h33.48.340,Remembering_Displays,2020.1.2,MacIntel,60,1,1,1.00019,1,0,1.34345,0,17,17,15,1,Stimuli/testStimuliSquare/6u_s_8_s_2D.png,Stimuli/testStimuliSquare/6u_d_8_s_2D.png,1,1,,,,,,,,,s,2D
,,,,,,,18,female,A,2020-05-11_18h33.48.340,Remembering_Displays,2020.1.2,MacIntel,60,1,1,0.787705,1,1,0.55826,0,18,18,7,1,Stimuli/testStimuliSquare/6u_s_10_2D.png,Stimuli/testStimuliSquare/6u_d_10_2D.png,1,1,,,,,,,,,c,2D
,,,,,,,18,female,A,2020-05-11_18h33.48.340,Remembering_Displays,2020.1.2,MacIntel,60,,0,,9,1,0.6536,0,19,19,1,1,Stimuli/testStimuliSquare/6u_s_7_2D.png,Stimuli/testStimuliSquare/6u_d_7_2D.png,1,1,,,,,,,,,c,2D
,,,,,,,18,female,A,2020-05-11_18h33.48.340,Remembering_Displays,2020.1.2,MacIntel,60,9,1,0.95535,9,1,1.010605,0,20,20,4,1,Stimuli/testStimuliSquare/6u_s_9_2D.png,Stimuli/testStimuliSquare/6u_s_9_2D.png,0,9,,,,,,,,,c,2D
,,,,,,,18,female,A,2020-05-11_18h33.48.340,Remembering_Displays,2020.1.2,MacIntel,60,9,1,0.78919,9,1,0.909685,0,21,21,16,1,Stimuli/testStimuliSquare/6u_s_9_s_2D.png,Stimuli/testStimuliSquare/6u_s_9_s_2D.png,0,9,,,,,,,,,s,2D
,,,,,,,18,female,A,2020-05-11_18h33.48.340,Remembering_Displays,2020.1.2,MacIntel,60,9,0,0.6987,9,1,1.083135,0,22,22,11,1,Stimuli/testStimuliSquare/6u_s_12_2D.png,Stimuli/testStimuliSquare/6u_d_12_2D.png,1,1,,,,,,,,,c,2D
,,,,,,,18,female,A,2020-05-11_18h33.48.340,Remembering_Displays,2020.1.2,MacIntel,60,9,1,0.48725,1,1,0.68628,0,23,23,22,1,Stimuli/testStimuliSquare/6u_s_12_s_2D.png,Stimuli/testStimuliSquare/6u_s_12_s_2D.png,0,9,,,,,,,,,s,2D
,,,,,,,18,female,A,2020-05-11_18h33.48.340,Remembering_Displays,2020.1.2,MacIntel,60,,,,,,,,,,,,,,,,0,4,4,4,1,Stimuli/trialListSquares2.xlsx,Instructions/instr_18.png,Progress: 72 of 192 trials completed,,
,,,,,,,18,female,A,2020-05-11_18h33.48.340,Remembering_Displays,2020.1.2,MacIntel,60,9,1,0.845595,1,1,0.61843,0,0,0,20,1,Stimuli/testStimuliCube/6u_s_17_s.png,Stimuli/testStimuliCube/6u_s_17_s.png,0,9,,,,,,,,,s,3D
,,,,,,,18,female,A,2020-05-11_18h33.48.340,Remembering_Displays,2020.1.2,MacIntel,60,9,1,0.732795,1,0,0.719135,0,1,1,12,1,Stimuli/testStimuliCube/6u_s_13_s.png,Stimuli/testStimuliCube/6u_s_13_s.png,0,9,,,,,,,,,s,3D
,,,,,,,18,female,A,2020-05-11_18h33.48.340,Remembering_Displays,2020.1.2,MacIntel,60,9,1,0.58146,9,1,0.518385,0,2,2,2,1,Stimuli/testStimuliCube/6u_s_14.png,Stimuli/testStimuliCube/6u_s_14.png,0,9,,,,,,,,,c,3D
,,,,,,,18,female,A,2020-05-11_18h33.48.340,Remembering_Displays,2020.1.2,MacIntel,60,1,1,0.73708,9,1,0.608605,0,3,3,1,1,Stimuli/testStimuliCube/6u_s_13.png,Stimuli/testStimuliCube/6u_d_13.png,1,1,,,,,,,,,c,3D
,,,,,,,18,female,A,2020-05-11_18h33.48.340,Remembering_Displays,2020.1.2,MacIntel,60,9,1,0.882335,9,0,2.090175,0,4,4,0,1,Stimuli/testStimuliCube/6u_s_13.png,Stimuli/testStimuliCube/6u_s_13.png,0,9,,,,,,,,,c,3D
,,,,,,,18,female,A,2020-05-11_18h33.48.340,Remembering_Displays,2020.1.2,MacIntel,60,1,1,0.77505,9,1,0.435315,0,5,5,21,1,Stimuli/testStimuliCube/6u_s_17_s.png,Stimuli/testStimuliCube/6u_d_17_s.png,1,1,,,,,,,,,s,3D
,,,,,,,18,female,A,2020-05-11_18h33.48.340,Remembering_Displays,2020.1.2,MacIntel,60,9,1,0.93846,9,1,0.47456,0,6,6,22,1,Stimuli/testStimuliCube/6u_s_18_s.png,Stimuli/testStimuliCube/6u_s_18_s.png,0,9,,,,,,,,,s,3D
,,,,,,,18,female,A,2020-05-11_18h33.48.340,Remembering_Displays,2020.1.2,MacIntel,60,1,1,0.652515,1,1,0.896385,0,7,7,7,1,Stimuli/testStimuliCube/6u_s_16.png,Stimuli/testStimuliCube/6u_d_16.png,1,1,,,,,,,,,c,3D
,,,,,,,18,female,A,2020-05-11_18h33.48.340,Remembering_Displays,2020.1.2,MacIntel,60,9,1,0.679485,9,1,0.809695,0,8,8,8,1,Stimuli/testStimuliCube/6u_s_17.png,Stimuli/testStimuliCube/6u_s_17.png,0,9,,,,,,,,,c,3D
,,,,,,,18,female,A,2020-05-11_18h33.48.340,Remembering_Displays,2020.1.2,MacIntel,60,9,0,0.47955,9,0,1.442925,0,9,9,11,1,Stimuli/testStimuliCube/6u_s_18.png,Stimuli/testStimuliCube/6u_d_18.png,1,1,,,,,,,,,c,3D
,,,,,,,18,female,A,2020-05-11_18h33.48.340,Remembering_Displays,2020.1.2,MacIntel,60,9,0,0.571875,9,0,1.83878,0,10,10,23,1,Stimuli/testStimuliCube/6u_s_18_s.png,Stimuli/testStimuliCube/6u_d_18_s.png,1,1,,,,,,,,,s,3D
,,,,,,,18,female,A,2020-05-11_18h33.48.340,Remembering_Displays,2020.1.2,MacIntel,60,1,1,0.87785,9,1,0.519115,0,11,11,19,1,Stimuli/testStimuliCube/6u_s_16_s.png,Stimuli/testStimuliCube/6u_d_16_s.png,1,1,,,,,,,,,s,3D
,,,,,,,18,female,A,2020-05-11_18h33.48.340,Remembering_Displays,2020.1.2,MacIntel,60,9,1,0.8681,9,1,0.58989,0,12,12,16,1,Stimuli/testStimuliCube/6u_s_15_s.png,Stimuli/testStimuliCube/6u_s_15_s.png,0,9,,,,,,,,,s,3D
,,,,,,,18,female,A,2020-05-11_18h33.48.340,Remembering_Displays,2020.1.2,MacIntel,60,9,0,0.407505,9,1,1.15384,0,13,13,13,1,Stimuli/testStimuliCube/6u_s_13_s.png,Stimuli/testStimuliCube/6u_d_13_s.png,1,1,,,,,,,,,s,3D
,,,,,,,18,female,A,2020-05-11_18h33.48.340,Remembering_Displays,2020.1.2,MacIntel,60,1,1,0.99391,9,1,0.385375,0,14,14,17,1,Stimuli/testStimuliCube/6u_s_15_s.png,Stimuli/testStimuliCube/6u_d_15_s.png,1,1,,,,,,,,,s,3D
,,,,,,,18,female,A,2020-05-11_18h33.48.340,Remembering_Displays,2020.1.2,MacIntel,60,9,1,0.95235,9,1,0.80315,0,15,15,18,1,Stimuli/testStimuliCube/6u_s_16_s.png,Stimuli/testStimuliCube/6u_s_16_s.png,0,9,,,,,,,,,s,3D
,,,,,,,18,female,A,2020-05-11_18h33.48.340,Remembering_Displays,2020.1.2,MacIntel,60,9,1,0.40229,9,1,2.10664,0,16,16,10,1,Stimuli/testStimuliCube/6u_s_18.png,Stimuli/testStimuliCube/6u_s_18.png,0,9,,,,,,,,,c,3D
,,,,,,,18,female,A,2020-05-11_18h33.48.340,Remembering_Displays,2020.1.2,MacIntel,60,1,1,0.643245,9,1,0.339025,0,17,17,3,1,Stimuli/testStimuliCube/6u_s_14.png,Stimuli/testStimuliCube/6u_d_14.png,1,1,,,,,,,,,c,3D
,,,,,,,18,female,A,2020-05-11_18h33.48.340,Remembering_Displays,2020.1.2,MacIntel,60,1,1,0.76682,9,1,0.386255,0,18,18,5,1,Stimuli/testStimuliCube/6u_s_15.png,Stimuli/testStimuliCube/6u_d_15.png,1,1,,,,,,,,,c,3D
,,,,,,,18,female,A,2020-05-11_18h33.48.340,Remembering_Displays,2020.1.2,MacIntel,60,9,1,0.83312,1,1,1.15391,0,19,19,14,1,Stimuli/testStimuliCube/6u_s_14_s.png,Stimuli/testStimuliCube/6u_s_14_s.png,0,9,,,,,,,,,s,3D
,,,,,,,18,female,A,2020-05-11_18h33.48.340,Remembering_Displays,2020.1.2,MacIntel,60,1,1,0.80089,1,1,1.07445,0,20,20,9,1,Stimuli/testStimuliCube/6u_s_17.png,Stimuli/testStimuliCube/6u_d_17.png,1,1,,,,,,,,,c,3D
,,,,,,,18,female,A,2020-05-11_18h33.48.340,Remembering_Displays,2020.1.2,MacIntel,60,1,0,0.71525,1,1,0.9915,0,21,21,4,1,Stimuli/testStimuliCube/6u_s_15.png,Stimuli/testStimuliCube/6u_s_15.png,0,9,,,,,,,,,c,3D
,,,,,,,18,female,A,2020-05-11_18h33.48.340,Remembering_Displays,2020.1.2,MacIntel,60,1,1,0.81787,9,1,0.786095,0,22,22,15,1,Stimuli/testStimuliCube/6u_s_14_s.png,Stimuli/testStimuliCube/6u_d_14_s.png,1,1,,,,,,,,,s,3D
,,,,,,,18,female,A,2020-05-11_18h33.48.340,Remembering_Displays,2020.1.2,MacIntel,60,9,1,0.929745,9,1,0.411845,0,23,23,6,1,Stimuli/testStimuliCube/6u_s_16.png,Stimuli/testStimuliCube/6u_s_16.png,0,9,,,,,,,,,c,3D
,,,,,,,18,female,A,2020-05-11_18h33.48.340,Remembering_Displays,2020.1.2,MacIntel,60,,,,,,,,,,,,,,,,0,5,5,5,1,Stimuli/trialListCubes3.xlsx,Instructions/instr_19.png,Progress: 96 of 192 trials completed,,
,,,,,,,18,female,A,2020-05-11_18h33.48.340,Remembering_Displays,2020.1.2,MacIntel,60,9,1,0.51825,9,1,0.503865,0,0,0,10,1,Stimuli/testStimuliSquare/6u_s_18_2D.png,Stimuli/testStimuliSquare/6u_s_18_2D.png,0,9,,,,,,,,,c,2D
,,,,,,,18,female,A,2020-05-11_18h33.48.340,Remembering_Displays,2020.1.2,MacIntel,60,1,1,0.858295,9,1,0.501795,0,1,1,17,1,Stimuli/testStimuliSquare/6u_s_15_s_2D.png,Stimuli/testStimuliSquare/6u_d_15_s_2D.png,1,1,,,,,,,,,s,2D
,,,,,,,18,female,A,2020-05-11_18h33.48.340,Remembering_Displays,2020.1.2,MacIntel,60,1,1,0.883345,1,1,1.72189,0,2,2,1,1,Stimuli/testStimuliSquare/6u_s_13_2D.png,Stimuli/testStimuliSquare/6u_d_13_2D.png,1,1,,,,,,,,,c,2D
,,,,,,,18,female,A,2020-05-11_18h33.48.340,Remembering_Displays,2020.1.2,MacIntel,60,9,1,0.897655,1,1,1.97403,0,3,3,0,1,Stimuli/testStimuliSquare/6u_s_13_2D.png,Stimuli/testStimuliSquare/6u_s_13_2D.png,0,9,,,,,,,,,c,2D
,,,,,,,18,female,A,2020-05-11_18h33.48.340,Remembering_Displays,2020.1.2,MacIntel,60,9,0,0.72004,9,0,1.05385,0,4,4,9,1,Stimuli/testStimuliSquare/6u_s_17_2D.png,Stimuli/testStimuliSquare/6u_d_17_2D.png,1,1,,,,,,,,,c,2D
,,,,,,,18,female,A,2020-05-11_18h33.48.340,Remembering_Displays,2020.1.2,MacIntel,60,1,1,0.63318,9,1,0.95161,0,5,5,5,1,Stimuli/testStimuliSquare/6u_s_15_2D.png,Stimuli/testStimuliSquare/6u_d_15_2D.png,1,1,,,,,,,,,c,2D
,,,,,,,18,female,A,2020-05-11_18h33.48.340,Remembering_Displays,2020.1.2,MacIntel,60,1,1,0.62467,1,1,0.904235,0,6,6,19,1,Stimuli/testStimuliSquare/6u_s_16_s_2D.png,Stimuli/testStimuliSquare/6u_d_16_s_2D.png,1,1,,,,,,,,,s,2D
,,,,,,,18,female,A,2020-05-11_18h33.48.340,Remembering_Displays,2020.1.2,MacIntel,60,,0,,1,1,1.540275,0,7,7,3,1,Stimuli/testStimuliSquare/6u_s_14_2D.png,Stimuli/testStimuliSquare/6u_d_14_2D.png,1,1,,,,,,,,,c,2D
,,,,,,,18,female,A,2020-05-11_18h33.48.340,Remembering_Displays,2020.1.2,MacIntel,60,1,1,0.957645,9,1,2.09802,0,8,8,15,1,Stimuli/testStimuliSquare/6u_s_14_s_2D.png,Stimuli/testStimuliSquare/6u_d_14_s_2D.png,1,1,,,,,,,,,s,2D
,,,,,,,18,female,A,2020-05-11_18h33.48.340,Remembering_Displays,2020.1.2,MacIntel,60,9,0,0.675465,9,1,0.656225,0,9,9,23,1,Stimuli/testStimuliSquare/6u_s_18_s_2D.png,Stimuli/testStimuliSquare/6u_d_18_s_2D.png,1,1,,,,,,,,,s,2D
,,,,,,,18,female,A,2020-05-11_18h33.48.340,Remembering_Displays,2020.1.2,MacIntel,60,9,1,0.834615,1,1,0.742725,0,10,10,8,1,Stimuli/testStimuliSquare/6u_s_17_2D.png,Stimuli/testStimuliSquare/6u_s_17_2D.png,0,9,,,,,,,,,c,2D
,,,,,,,18,female,A,2020-05-11_18h33.48.340,Remembering_Displays,2020.1.2,MacIntel,60,9,0,0.790875,9,1,0.636085,0,11,11,13,1,Stimuli/testStimuliSquare/6u_s_13_s_2D.png,Stimuli/testStimuliSquare/6u_d_13_s_2D.png,1,1,,,,,,,,,s,2D
,,,,,,,18,female,A,2020-05-11_18h33.48.340,Remembering_Displays,2020.1.2,MacIntel,60,1,1,0.76521,9,1,0.868045,0,12,12,21,1,Stimuli/testStimuliSquare/6u_s_17_s_2D.png,Stimuli/testStimuliSquare/6u_d_17_s_2D.png,1,1,,,,,,,,,s,2D
,,,,,,,18,female,A,2020-05-11_18h33.48.340,Remembering_Displays,2020.1.2,MacIntel,60,9,1,0.52331,9,1,0.450545,0,13,13,14,1,Stimuli/testStimuliSquare/6u_s_14_s_2D.png,Stimuli/testStimuliSquare/6u_s_14_s_2D.png,0,9,,,,,,,,,s,2D
,,,,,,,18,female,A,2020-05-11_18h33.48.340,Remembering_Displays,2020.1.2,MacIntel,60,1,0,0.72845,1,1,0.637255,0,14,14,4,1,Stimuli/testStimuliSquare/6u_s_15_2D.png,Stimuli/testStimuliSquare/6u_s_15_2D.png,0,9,,,,,,,,,c,2D
,,,,,,,18,female,A,2020-05-11_18h33.48.340,Remembering_Displays,2020.1.2,MacIntel,60,9,1,0.726025,1,1,0.523805,0,15,15,22,1,Stimuli/testStimuliSquare/6u_s_18_s_2D.png,Stimuli/testStimuliSquare/6u_s_18_s_2D.png,0,9,,,,,,,,,s,2D
,,,,,,,18,female,A,2020-05-11_18h33.48.340,Remembering_Displays,2020.1.2,MacIntel,60,9,1,0.605275,1,1,0.6027,0,16,16,2,1,Stimuli/testStimuliSquare/6u_s_14_2D.png,Stimuli/testStimuliSquare/6u_s_14_2D.png,0,9,,,,,,,,,c,2D
,,,,,,,18,female,A,2020-05-11_18h33.48.340,Remembering_Displays,2020.1.2,MacIntel,60,9,1,1.15187,9,0,3.747705,0,17,17,6,1,Stimuli/testStimuliSquare/6u_s_16_2D.png,Stimuli/testStimuliSquare/6u_s_16_2D.png,0,9,,,,,,,,,c,2D
,,,,,,,18,female,A,2020-05-11_18h33.48.340,Remembering_Displays,2020.1.2,MacIntel,60,9,1,0.7859,1,1,0.487545,0,18,18,20,1,Stimuli/testStimuliSquare/6u_s_17_s_2D.png,Stimuli/testStimuliSquare/6u_s_17_s_2D.png,0,9,,,,,,,,,s,2D
,,,,,,,18,female,A,2020-05-11_18h33.48.340,Remembering_Displays,2020.1.2,MacIntel,60,9,0,0.52849,9,1,0.702675,0,19,19,11,1,Stimuli/testStimuliSquare/6u_s_18_2D.png,Stimuli/testStimuliSquare/6u_d_18_2D.png,1,1,,,,,,,,,c,2D
,,,,,,,18,female,A,2020-05-11_18h33.48.340,Remembering_Displays,2020.1.2,MacIntel,60,9,1,0.92004,9,0,5.04742,0,20,20,16,1,Stimuli/testStimuliSquare/6u_s_15_s_2D.png,Stimuli/testStimuliSquare/6u_s_15_s_2D.png,0,9,,,,,,,,,s,2D
,,,,,,,18,female,A,2020-05-11_18h33.48.340,Remembering_Displays,2020.1.2,MacIntel,60,9,1,0.502455,1,1,0.786245,0,21,21,12,1,Stimuli/testStimuliSquare/6u_s_13_s_2D.png,Stimuli/testStimuliSquare/6u_s_13_s_2D.png,0,9,,,,,,,,,s,2D
,,,,,,,18,female,A,2020-05-11_18h33.48.340,Remembering_Displays,2020.1.2,MacIntel,60,1,1,0.785895,1,1,2.94222,0,22,22,7,1,Stimuli/testStimuliSquare/6u_s_16_2D.png,Stimuli/testStimuliSquare/6u_d_16_2D.png,1,1,,,,,,,,,c,2D
,,,,,,,18,female,A,2020-05-11_18h33.48.340,Remembering_Displays,2020.1.2,MacIntel,60,9,1,1.0874,1,1,1.52874,0,23,23,18,1,Stimuli/testStimuliSquare/6u_s_16_s_2D.png,Stimuli/testStimuliSquare/6u_s_16_s_2D.png,0,9,,,,,,,,,s,2D
,,,,,,,18,female,A,2020-05-11_18h33.48.340,Remembering_Displays,2020.1.2,MacIntel,60,,,,,,,,,,,,,,,,0,6,6,6,1,Stimuli/trialListSquares3.xlsx,Instructions/instr_18.png,Progress: 120 of 192 trials completed,,
,,,,,,,18,female,A,2020-05-11_18h33.48.340,Remembering_Displays,2020.1.2,MacIntel,60,9,1,0.684345,1,1,0.90312,0,0,0,10,1,Stimuli/testStimuliCube/6u_s_12.png,Stimuli/testStimuliCube/6u_s_12.png,0,9,,,,,,,,,c,3D
,,,,,,,18,female,A,2020-05-11_18h33.48.340,Remembering_Displays,2020.1.2,MacIntel,60,9,1,0.633635,9,1,0.524465,0,1,1,18,1,Stimuli/testStimuliCube/6u_s_10_s.png,Stimuli/testStimuliCube/6u_s_10_s.png,0,9,,,,,,,,,s,3D
,,,,,,,18,female,A,2020-05-11_18h33.48.340,Remembering_Displays,2020.1.2,MacIntel,60,9,1,0.55227,1,1,0.837355,0,2,2,6,1,Stimuli/testStimuliCube/6u_s_10.png,Stimuli/testStimuliCube/6u_s_10.png,0,9,,,,,,,,,c,3D
,,,,,,,18,female,A,2020-05-11_18h33.48.340,Remembering_Displays,2020.1.2,MacIntel,60,1,1,0.588275,1,1,0.519135,0,3,3,1,1,Stimuli/testStimuliCube/6u_s_7.png,Stimuli/testStimuliCube/6u_d_7.png,1,1,,,,,,,,,c,3D
,,,,,,,18,female,A,2020-05-11_18h33.48.340,Remembering_Displays,2020.1.2,MacIntel,60,9,0,0.761785,1,0,0.435285,0,4,4,17,1,Stimuli/testStimuliCube/6u_s_9_s.png,Stimuli/testStimuliCube/6u_d_9_s.png,1,1,,,,,,,,,s,3D
,,,,,,,18,female,A,2020-05-11_18h33.48.340,Remembering_Displays,2020.1.2,MacIntel,60,9,1,0.822145,1,1,0.99026,0,5,5,0,1,Stimuli/testStimuliCube/6u_s_7.png,Stimuli/testStimuliCube/6u_s_7.png,0,9,,,,,,,,,c,3D
,,,,,,,18,female,A,2020-05-11_18h33.48.340,Remembering_Displays,2020.1.2,MacIntel,60,9,1,0.81491,1,1,0.539685,0,6,6,2,1,Stimuli/testStimuliCube/6u_s_8.png,Stimuli/testStimuliCube/6u_s_8.png,0,9,,,,,,,,,c,3D
,,,,,,,18,female,A,2020-05-11_18h33.48.340,Remembering_Displays,2020.1.2,MacIntel,60,9,0,0.689505,9,1,1.10403,0,7,7,5,1,Stimuli/testStimuliCube/6u_s_9.png,Stimuli/testStimuliCube/6u_d_9.png,1,1,,,,,,,,,c,3D
,,,,,,,18,female,A,2020-05-11_18h33.48.340,Remembering_Displays,2020.1.2,MacIntel,60,9,1,0.50015,1,1,2.458635,0,8,8,16,1,Stimuli/testStimuliCube/6u_s_9_s.png,Stimuli/testStimuliCube/6u_s_9_s.png,0,9,,,,,,,,,s,3D
,,,,,,,18,female,A,2020-05-11_18h33.48.340,Remembering_Displays,2020.1.2,MacIntel,60,9,0,0.92312,1,1,1.37114,0,9,9,9,1,Stimuli/testStimuliCube/6u_s_11.png,Stimuli/testStimuliCube/6u_d_11.png,1,1,,,,,,,,,c,3D
,,,,,,,18,female,A,2020-05-11_18h33.48.340,Remembering_Displays,2020.1.2,MacIntel,60,9,0,0.48238,9,1,0.742175,0,10,10,23,1,Stimuli/testStimuliCube/6u_s_12_s.png,Stimuli/testStimuliCube/6u_d_12_s.png,1,1,,,,,,,,,s,3D
,,,,,,,18,female,A,2020-05-11_18h33.48.340,Remembering_Displays,2020.1.2,MacIntel,60,9,0,0.52577,9,1,0.903655,0,11,11,7,1,Stimuli/testStimuliCube/6u_s_10.png,Stimuli/testStimuliCube/6u_d_10.png,1,1,,,,,,,,,c,3D
,,,,,,,18,female,A,2020-05-11_18h33.48.340,Remembering_Displays,2020.1.2,MacIntel,60,9,1,1.085435,1,1,0.8389,0,12,12,8,1,Stimuli/testStimuliCube/6u_s_11.png,Stimuli/testStimuliCube/6u_s_11.png,0,9,,,,,,,,,c,3D
,,,,,,,18,female,A,2020-05-11_18h33.48.340,Remembering_Displays,2020.1.2,MacIntel,60,1,1,0.835935,9,1,0.573415,0,13,13,3,1,Stimuli/testStimuliCube/6u_s_8.png,Stimuli/testStimuliCube/6u_d_8.png,1,1,,,,,,,,,c,3D
,,,,,,,18,female,A,2020-05-11_18h33.48.340,Remembering_Displays,2020.1.2,MacIntel,60,1,1,0.75095,9,1,1.20436,0,14,14,19,1,Stimuli/testStimuliCube/6u_s_10_s.png,Stimuli/testStimuliCube/6u_d_10_s.png,1,1,,,,,,,,,s,3D
,,,,,,,18,female,A,2020-05-11_18h33.48.340,Remembering_Displays,2020.1.2,MacIntel,60,9,0,0.639305,1,1,0.626115,0,15,15,11,1,Stimuli/testStimuliCube/6u_s_12.png,Stimuli/testStimuliCube/6u_d_12.png,1,1,,,,,,,,,c,3D
,,,,,,,18,female,A,2020-05-11_18h33.48.340,Remembering_Displays,2020.1.2,MacIntel,60,9,0,1.044565,1,1,1.020705,0,16,16,21,1,Stimuli/testStimuliCube/6u_s_11_s.png,Stimuli/testStimuliCube/6u_d_11_s.png,1,1,,,,,,,,,s,3D
,,,,,,,18,female,A,2020-05-11_18h33.48.340,Remembering_Displays,2020.1.2,MacIntel,60,9,1,0.567925,9,1,0.55237,0,17,17,20,1,Stimuli/testStimuliCube/6u_s_11_s.png,Stimuli/testStimuliCube/6u_s_11_s.png,0,9,,,,,,,,,s,3D
,,,,,,,18,female,A,2020-05-11_18h33.48.340,Remembering_Displays,2020.1.2,MacIntel,60,1,1,0.842585,1,1,0.75272,0,18,18,13,1,Stimuli/testStimuliCube/6u_s_7_s.png,Stimuli/testStimuliCube/6u_d_7_s.png,1,1,,,,,,,,,s,3D
,,,,,,,18,female,A,2020-05-11_18h33.48.340,Remembering_Displays,2020.1.2,MacIntel,60,9,1,0.79397,1,1,0.68647,0,19,19,22,1,Stimuli/testStimuliCube/6u_s_12_s.png,Stimuli/testStimuliCube/6u_s_12_s.png,0,9,,,,,,,,,s,3D
,,,,,,,18,female,A,2020-05-11_18h33.48.340,Remembering_Displays,2020.1.2,MacIntel,60,1,0,0.967,9,1,0.4187,0,20,20,14,1,Stimuli/testStimuliCube/6u_s_8_s.png,Stimuli/testStimuliCube/6u_s_8_s.png,0,9,,,,,,,,,s,3D
,,,,,,,18,female,A,2020-05-11_18h33.48.340,Remembering_Displays,2020.1.2,MacIntel,60,1,1,0.653875,1,1,2.942335,0,21,21,15,1,Stimuli/testStimuliCube/6u_s_8_s.png,Stimuli/testStimuliCube/6u_d_8_s.png,1,1,,,,,,,,,s,3D
,,,,,,,18,female,A,2020-05-11_18h33.48.340,Remembering_Displays,2020.1.2,MacIntel,60,9,1,0.911225,9,1,0.289335,0,22,22,4,1,Stimuli/testStimuliCube/6u_s_9.png,Stimuli/testStimuliCube/6u_s_9.png,0,9,,,,,,,,,c,3D
,,,,,,,18,female,A,2020-05-11_18h33.48.340,Remembering_Displays,2020.1.2,MacIntel,60,9,1,0.60487,9,1,0.326065,0,23,23,12,1,Stimuli/testStimuliCube/6u_s_7_s.png,Stimuli/testStimuliCube/6u_s_7_s.png,0,9,,,,,,,,,s,3D
,,,,,,,18,female,A,2020-05-11_18h33.48.340,Remembering_Displays,2020.1.2,MacIntel,60,,,,,,,,,,,,,,,,0,7,7,7,1,Stimuli/trialListCubes2.xlsx,Instructions/instr_19.png,Progress: 144 of 192 trials completed,,
,,,,,,,18,female,A,2020-05-11_18h33.48.340,Remembering_Displays,2020.1.2,MacIntel,60,9,1,0.46296,9,1,0.535575,0,0,0,14,1,Stimuli/testStimuliSquare/6u_s_20_s_2D.png,Stimuli/testStimuliSquare/6u_s_20_s_2D.png,0,9,,,,,,,,,s,2D
,,,,,,,18,female,A,2020-05-11_18h33.48.340,Remembering_Displays,2020.1.2,MacIntel,60,1,1,0.577415,9,1,1.22105,0,1,1,17,1,Stimuli/testStimuliSquare/6u_s_21_s_2D.png,Stimuli/testStimuliSquare/6u_d_21_s_2D.png,1,1,,,,,,,,,s,2D
,,,,,,,18,female,A,2020-05-11_18h33.48.340,Remembering_Displays,2020.1.2,MacIntel,60,1,1,0.61842,9,0,0.62342,0,2,2,7,1,Stimuli/testStimuliSquare/6u_s_22_2D.png,Stimuli/testStimuliSquare/6u_d_22_2D.png,1,1,,,,,,,,,c,2D
,,,,,,,18,female,A,2020-05-11_18h33.48.340,Remembering_Displays,2020.1.2,MacIntel,60,1,1,1.023825,1,1,1.0095,0,3,3,3,1,Stimuli/testStimuliSquare/6u_s_20_2D.png,Stimuli/testStimuliSquare/6u_d_20_2D.png,1,1,,,,,,,,,c,2D
,,,,,,,18,female,A,2020-05-11_18h33.48.340,Remembering_Displays,2020.1.2,MacIntel,60,9,1,0.80241,9,1,0.769585,0,4,4,6,1,Stimuli/testStimuliSquare/6u_s_22_2D.png,Stimuli/testStimuliSquare/6u_s_22_2D.png,0,9,,,,,,,,,c,2D
,,,,,,,18,female,A,2020-05-11_18h33.48.340,Remembering_Displays,2020.1.2,MacIntel,60,9,0,0.48778,1,1,0.58774,0,5,5,23,1,Stimuli/testStimuliSquare/6u_s_24_s_2D.png,Stimuli/testStimuliSquare/6u_d_24_s_2D.png,1,1,,,,,,,,,s,2D
,,,,,,,18,female,A,2020-05-11_18h33.48.340,Remembering_Displays,2020.1.2,MacIntel,60,9,0,0.621165,1,1,0.49238,0,6,6,11,1,Stimuli/testStimuliSquare/6u_s_24_2D.png,Stimuli/testStimuliSquare/6u_d_24_2D.png,1,1,,,,,,,,,c,2D
,,,,,,,18,female,A,2020-05-11_18h33.48.340,Remembering_Displays,2020.1.2,MacIntel,60,1,1,0.607215,1,1,0.70424,0,7,7,19,1,Stimuli/testStimuliSquare/6u_s_22_s_2D.png,Stimuli/testStimuliSquare/6u_d_22_s_2D.png,1,1,,,,,,,,,s,2D
,,,,,,,18,female,A,2020-05-11_18h33.48.340,Remembering_Displays,2020.1.2,MacIntel,60,9,1,1.020795,1,1,0.48915,0,8,8,12,1,Stimuli/testStimuliSquare/6u_s_19_s_2D.png,Stimuli/testStimuliSquare/6u_s_19_s_2D.png,0,9,,,,,,,,,s,2D
,,,,,,,18,female,A,2020-05-11_18h33.48.340,Remembering_Displays,2020.1.2,MacIntel,60,9,1,0.50097,1,1,1.83916,0,9,9,22,1,Stimuli/testStimuliSquare/6u_s_24_s_2D.png,Stimuli/testStimuliSquare/6u_s_24_s_2D.png,0,9,,,,,,,,,s,2D
,,,,,,,18,female,A,2020-05-11_18h33.48.340,Remembering_Displays,2020.1.2,MacIntel,60,1,1,0.6583,9,1,0.61869,0,10,10,15,1,Stimuli/testStimuliSquare/6u_s_20_s_2D.png,Stimuli/testStimuliSquare/6u_d_20_s_2D.png,1,1,,,,,,,,,s,2D
,,,,,,,18,female,A,2020-05-11_18h33.48.340,Remembering_Displays,2020.1.2,MacIntel,60,9,1,0.70643,9,1,1.111075,0,11,11,2,1,Stimuli/testStimuliSquare/6u_s_20_2D.png,Stimuli/testStimuliSquare/6u_s_20_2D.png,0,9,,,,,,,,,c,2D
,,,,,,,18,female,A,2020-05-11_18h33.48.340,Remembering_Displays,2020.1.2,MacIntel,60,9,1,0.491865,9,1,1.160685,0,12,12,10,1,Stimuli/testStimuliSquare/6u_s_24_2D.png,Stimuli/testStimuliSquare/6u_s_24_2D.png,0,9,,,,,,,,,c,2D
,,,,,,,18,female,A,2020-05-11_18h33.48.340,Remembering_Displays,2020.1.2,MacIntel,60,9,1,0.504075,1,1,2.909595,0,13,13,8,1,Stimuli/testStimuliSquare/6u_s_23_2D.png,Stimuli/testStimuliSquare/6u_s_23_2D.png,0,9,,,,,,,,,c,2D
,,,,,,,18,female,A,2020-05-11_18h33.48.340,Remembering_Displays,2020.1.2,MacIntel,60,1,1,0.59065,1,1,0.60278,0,14,14,21,1,Stimuli/testStimuliSquare/6u_s_23_s_2D.png,Stimuli/testStimuliSquare/6u_d_23_s_2D.png,1,1,,,,,,,,,s,2D
,,,,,,,18,female,A,2020-05-11_18h33.48.340,Remembering_Displays,2020.1.2,MacIntel,60,1,1,0.806795,1,1,1.63832,0,15,15,9,1,Stimuli/testStimuliSquare/6u_s_23_2D.png,Stimuli/testStimuliSquare/6u_d_23_2D.png,1,1,,,,,,,,,c,2D
,,,,,,,18,female,A,2020-05-11_18h33.48.340,Remembering_Displays,2020.1.2,MacIntel,60,1,1,0.722085,1,1,1.408365,0,16,16,1,1,Stimuli/testStimuliSquare/6u_s_19_2D.png,Stimuli/testStimuliSquare/6u_d_19_2D.png,1,1,,,,,,,,,c,2D
,,,,,,,18,female,A,2020-05-11_18h33.48.340,Remembering_Displays,2020.1.2,MacIntel,60,1,0,0.839105,9,1,0.592355,0,17,17,4,1,Stimuli/testStimuliSquare/6u_s_21_2D.png,Stimuli/testStimuliSquare/6u_s_21_2D.png,0,9,,,,,,,,,c,2D
,,,,,,,18,female,A,2020-05-11_18h33.48.340,Remembering_Displays,2020.1.2,MacIntel,60,9,1,0.819175,1,1,0.63586,0,18,18,16,1,Stimuli/testStimuliSquare/6u_s_21_s_2D.png,Stimuli/testStimuliSquare/6u_s_21_s_2D.png,0,9,,,,,,,,,s,2D
,,,,,,,18,female,A,2020-05-11_18h33.48.340,Remembering_Displays,2020.1.2,MacIntel,60,9,1,0.62074,9,1,0.438925,0,19,19,20,1,Stimuli/testStimuliSquare/6u_s_23_s_2D.png,Stimuli/testStimuliSquare/6u_s_23_s_2D.png,0,9,,,,,,,,,s,2D
,,,,,,,18,female,A,2020-05-11_18h33.48.340,Remembering_Displays,2020.1.2,MacIntel,60,9,0,0.57279,1,1,0.60501,0,20,20,5,1,Stimuli/testStimuliSquare/6u_s_21_2D.png,Stimuli/testStimuliSquare/6u_d_21_2D.png,1,1,,,,,,,,,c,2D
,,,,,,,18,female,A,2020-05-11_18h33.48.340,Remembering_Displays,2020.1.2,MacIntel,60,9,1,0.619495,1,1,1.007865,0,21,21,18,1,Stimuli/testStimuliSquare/6u_s_22_s_2D.png,Stimuli/testStimuliSquare/6u_s_22_s_2D.png,0,9,,,,,,,,,s,2D
,,,,,,,18,female,A,2020-05-11_18h33.48.340,Remembering_Displays,2020.1.2,MacIntel,60,9,1,0.5002,1,1,0.56941,0,22,22,0,1,Stimuli/testStimuliSquare/6u_s_19_2D.png,Stimuli/testStimuliSquare/6u_s_19_2D.png,0,9,,,,,,,,,c,2D
,,,,,,,18,female,A,2020-05-11_18h33.48.340,Remembering_Displays,2020.1.2,MacIntel,60,1,1,0.6705,9,0,0.63833,0,23,23,13,1,Stimuli/testStimuliSquare/6u_s_19_s_2D.png,Stimuli/testStimuliSquare/6u_d_19_s_2D.png,1,1,,,,,,,,,s,2D
,,,,,,,18,female,A,2020-05-11_18h33.48.340,Remembering_Displays,2020.1.2,MacIntel,60,,,,,,,,,,,,,,,,0,8,8,8,1,Stimuli/trialListSquares4.xlsx,Instructions/instr_18.png,Progress: 168 of 192 trials completed,,
,,,,,,,18,female,A,2020-05-11_18h33.48.340,Remembering_Displays,2020.1.2,MacIntel,60,1,1,0.672795,9,1,0.336305,0,0,0,17,1,Stimuli/testStimuliCube/6u_s_3_s.png,Stimuli/testStimuliCube/6u_d_3_s.png,1,1,,,,,,,,,s,3D
,,,,,,,18,female,A,2020-05-11_18h33.48.340,Remembering_Displays,2020.1.2,MacIntel,60,1,1,0.780245,9,1,0.335215,0,1,1,15,1,Stimuli/testStimuliCube/6u_s_2_s.png,Stimuli/testStimuliCube/6u_d_2_s.png,1,1,,,,,,,,,s,3D
,,,,,,,18,female,A,2020-05-11_18h33.48.340,Remembering_Displays,2020.1.2,MacIntel,60,1,1,0.708075,1,1,0.87156,0,2,2,21,1,Stimuli/testStimuliCube/6u_s_5_s.png,Stimuli/testStimuliCube/6u_d_5_s.png,1,1,,,,,,,,,s,3D
,,,,,,,18,female,A,2020-05-11_18h33.48.340,Remembering_Displays,2020.1.2,MacIntel,60,1,0,0.70591,1,0,1.506125,0,3,3,4,1,Stimuli/testStimuliCube/6u_s_3.png,Stimuli/testStimuliCube/6u_s_3.png,0,9,,,,,,,,,c,3D
,,,,,,,18,female,A,2020-05-11_18h33.48.340,Remembering_Displays,2020.1.2,MacIntel,60,1,0,0.68259,1,1,0.73609,0,4,4,6,1,Stimuli/testStimuliCube/6u_s_4.png,Stimuli/testStimuliCube/6u_s_4.png,0,9,,,,,,,,,c,3D
,,,,,,,18,female,A,2020-05-11_18h33.48.340,Remembering_Displays,2020.1.2,MacIntel,60,9,0,0.722545,1,1,0.636225,0,5,5,9,1,Stimuli/testStimuliCube/6u_s_5.png,Stimuli/testStimuliCube/6u_d_5.png,1,1,,,,,,,,,c,3D
,,,,,,,18,female,A,2020-05-11_18h33.48.340,Remembering_Displays,2020.1.2,MacIntel,60,9,1,0.7693,1,1,1.889235,0,6,6,2,1,Stimuli/testStimuliCube/6u_s_2.png,Stimuli/testStimuliCube/6u_s_2.png,0,9,,,,,,,,,c,3D
,,,,,,,18,female,A,2020-05-11_18h33.48.340,Remembering_Displays,2020.1.2,MacIntel,60,9,1,0.88388,9,1,0.402515,0,7,7,18,1,Stimuli/testStimuliCube/6u_s_4_s.png,Stimuli/testStimuliCube/6u_s_4_s.png,0,9,,,,,,,,,s,3D
,,,,,,,18,female,A,2020-05-11_18h33.48.340,Remembering_Displays,2020.1.2,MacIntel,60,1,1,0.742265,1,1,4.619635,0,8,8,19,1,Stimuli/testStimuliCube/6u_s_4_s.png,Stimuli/testStimuliCube/6u_d_4_s.png,1,1,,,,,,,,,s,3D
,,,,,,,18,female,A,2020-05-11_18h33.48.340,Remembering_Displays,2020.1.2,MacIntel,60,9,1,0.76498,9,1,0.519015,0,9,9,8,1,Stimuli/testStimuliCube/6u_s_5.png,Stimuli/testStimuliCube/6u_s_5.png,0,9,,,,,,,,,c,3D
,,,,,,,18,female,A,2020-05-11_18h33.48.340,Remembering_Displays,2020.1.2,MacIntel,60,1,1,0.60393,9,1,0.454,0,10,10,3,1,Stimuli/testStimuliCube/6u_s_2.png,Stimuli/testStimuliCube/6u_d_2.png,1,1,,,,,,,,,c,3D
,,,,,,,18,female,A,2020-05-11_18h33.48.340,Remembering_Displays,2020.1.2,MacIntel,60,9,0,0.592875,9,1,0.85365,0,11,11,23,1,Stimuli/testStimuliCube/6u_s_6_s.png,Stimuli/testStimuliCube/6u_d_6_s.png,1,1,,,,,,,,,s,3D
,,,,,,,18,female,A,2020-05-11_18h33.48.340,Remembering_Displays,2020.1.2,MacIntel,60,1,1,0.74228,1,1,0.89032,0,12,12,7,1,Stimuli/testStimuliCube/6u_s_4.png,Stimuli/testStimuliCube/6u_d_4.png,1,1,,,,,,,,,c,3D
,,,,,,,18,female,A,2020-05-11_18h33.48.340,Remembering_Displays,2020.1.2,MacIntel,60,1,1,1.410075,9,0,0.45657,0,13,13,11,1,Stimuli/testStimuliCube/6u_s_6.png,Stimuli/testStimuliCube/6u_d_6.png,1,1,,,,,,,,,c,3D
,,,,,,,18,female,A,2020-05-11_18h33.48.340,Remembering_Displays,2020.1.2,MacIntel,60,9,1,0.536135,9,1,1.220895,0,14,14,10,1,Stimuli/testStimuliCube/6u_s_6.png,Stimuli/testStimuliCube/6u_s_6.png,0,9,,,,,,,,,c,3D
,,,,,,,18,female,A,2020-05-11_18h33.48.340,Remembering_Displays,2020.1.2,MacIntel,60,9,1,0.58653,1,1,2.726295,0,15,15,20,1,Stimuli/testStimuliCube/6u_s_5_s.png,Stimuli/testStimuliCube/6u_s_5_s.png,0,9,,,,,,,,,s,3D
,,,,,,,18,female,A,2020-05-11_18h33.48.340,Remembering_Displays,2020.1.2,MacIntel,60,1,1,0.589125,1,1,0.62236,0,16,16,5,1,Stimuli/testStimuliCube/6u_s_3.png,Stimuli/testStimuliCube/6u_d_3.png,1,1,,,,,,,,,c,3D
,,,,,,,18,female,A,2020-05-11_18h33.48.340,Remembering_Displays,2020.1.2,MacIntel,60,9,1,0.721345,1,0,1.291215,0,17,17,14,1,Stimuli/testStimuliCube/6u_s_2_s.png,Stimuli/testStimuliCube/6u_s_2_s.png,0,9,,,,,,,,,s,3D
,,,,,,,18,female,A,2020-05-11_18h33.48.340,Remembering_Displays,2020.1.2,MacIntel,60,9,1,0.722115,1,1,0.67426,0,18,18,16,1,Stimuli/testStimuliCube/6u_s_3_s.png,Stimuli/testStimuliCube/6u_s_3_s.png,0,9,,,,,,,,,s,3D
,,,,,,,18,female,A,2020-05-11_18h33.48.340,Remembering_Displays,2020.1.2,MacIntel,60,1,1,0.668345,1,1,0.64059,0,19,19,1,1,Stimuli/testStimuliCube/6u_s_1.png,Stimuli/testStimuliCube/6u_d_1.png,1,1,,,,,,,,,c,3D
,,,,,,,18,female,A,2020-05-11_18h33.48.340,Remembering_Displays,2020.1.2,MacIntel,60,9,1,0.970575,1,1,0.819315,0,20,20,22,1,Stimuli/testStimuliCube/6u_s_6_s.png,Stimuli/testStimuliCube/6u_s_6_s.png,0,9,,,,,,,,,s,3D
,,,,,,,18,female,A,2020-05-11_18h33.48.340,Remembering_Displays,2020.1.2,MacIntel,60,9,0,0.711925,1,1,0.452145,0,21,21,13,1,Stimuli/testStimuliCube/6u_s_1_s.png,Stimuli/testStimuliCube/6u_d_1_s.png,1,1,,,,,,,,,s,3D
,,,,,,,18,female,A,2020-05-11_18h33.48.340,Remembering_Displays,2020.1.2,MacIntel,60,9,1,0.583965,1,1,1.12264,0,22,22,12,1,Stimuli/testStimuliCube/6u_s_1_s.png,Stimuli/testStimuliCube/6u_s_1_s.png,0,9,,,,,,,,,s,3D
,,,,,,,18,female,A,2020-05-11_18h33.48.340,Remembering_Displays,2020.1.2,MacIntel,60,9,1,0.51692,1,0,5.56579,0,23,23,0,1,Stimuli/testStimuliCube/6u_s_1.png,Stimuli/testStimuliCube/6u_s_1.png,0,9,,,,,,,,,c,3D