instr_Loop.thisRepN,instr_Loop.thisTrialN,instr_Loop.thisN,instr_Loop.thisIndex,instr_Loop.ran,instructionImage,time,age,sex (female/male),order,date,expName,psychopyVersion,OS,frameRate,struc_judge_respond.keys,struc_judge_respond.corr,struc_judge_respond.rt,dual_respond.keys,dual_respond.corr,dual_respond.rt,trials.thisRepN,trials.thisTrialN,trials.thisN,trials.thisIndex,trials.ran,stim1,stim2,isAnyChange,corrAns,selectBlock.thisRepN,selectBlock.thisTrialN,selectBlock.thisN,selectBlock.thisIndex,selectBlock.ran,condsFile,condsImage,remaining,connected,dimensionality
0,0,0,0,1,Instructions/consent.png,3,20,male ,B,2020-05-12_17h24.53.586,Remembering_Displays,2020.1.2,MacIntel,60,,,,,,,,,,,,,,,,,,,,,,,,,
0,1,1,1,1,Instructions/instr_1.png,5,20,male ,B,2020-05-12_17h24.53.586,Remembering_Displays,2020.1.2,MacIntel,60,,,,,,,,,,,,,,,,,,,,,,,,,
0,2,2,2,1,Instructions/instr_2.png,3,20,male ,B,2020-05-12_17h24.53.586,Remembering_Displays,2020.1.2,MacIntel,60,,,,,,,,,,,,,,,,,,,,,,,,,
0,3,3,3,1,Instructions/instr_3.png,5,20,male ,B,2020-05-12_17h24.53.586,Remembering_Displays,2020.1.2,MacIntel,60,,,,,,,,,,,,,,,,,,,,,,,,,
0,4,4,4,1,Instructions/instr_4.png,1,20,male ,B,2020-05-12_17h24.53.586,Remembering_Displays,2020.1.2,MacIntel,60,,,,,,,,,,,,,,,,,,,,,,,,,
0,5,5,5,1,Instructions/instr_5.png,1,20,male ,B,2020-05-12_17h24.53.586,Remembering_Displays,2020.1.2,MacIntel,60,,,,,,,,,,,,,,,,,,,,,,,,,
0,6,6,6,1,Instructions/instr_6.png,1,20,male ,B,2020-05-12_17h24.53.586,Remembering_Displays,2020.1.2,MacIntel,60,,,,,,,,,,,,,,,,,,,,,,,,,
0,7,7,7,1,Instructions/instr_7.png,1,20,male ,B,2020-05-12_17h24.53.586,Remembering_Displays,2020.1.2,MacIntel,60,,,,,,,,,,,,,,,,,,,,,,,,,
0,8,8,8,1,Instructions/instr_8.png,3,20,male ,B,2020-05-12_17h24.53.586,Remembering_Displays,2020.1.2,MacIntel,60,,,,,,,,,,,,,,,,,,,,,,,,,
0,9,9,9,1,Instructions/instr_9.png,3,20,male ,B,2020-05-12_17h24.53.586,Remembering_Displays,2020.1.2,MacIntel,60,,,,,,,,,,,,,,,,,,,,,,,,,
0,10,10,10,1,Instructions/instr_10.png,3,20,male ,B,2020-05-12_17h24.53.586,Remembering_Displays,2020.1.2,MacIntel,60,,,,,,,,,,,,,,,,,,,,,,,,,
0,11,11,11,1,Instructions/instr_11.png,3,20,male ,B,2020-05-12_17h24.53.586,Remembering_Displays,2020.1.2,MacIntel,60,,,,,,,,,,,,,,,,,,,,,,,,,
0,12,12,12,1,Instructions/instr_12.png,3,20,male ,B,2020-05-12_17h24.53.586,Remembering_Displays,2020.1.2,MacIntel,60,,,,,,,,,,,,,,,,,,,,,,,,,
0,13,13,13,1,Instructions/instr_13.png,3,20,male ,B,2020-05-12_17h24.53.586,Remembering_Displays,2020.1.2,MacIntel,60,,,,,,,,,,,,,,,,,,,,,,,,,
0,14,14,14,1,Instructions/instr_14.png,3,20,male ,B,2020-05-12_17h24.53.586,Remembering_Displays,2020.1.2,MacIntel,60,,,,,,,,,,,,,,,,,,,,,,,,,
0,15,15,15,1,Instructions/instr_15.png,3,20,male ,B,2020-05-12_17h24.53.586,Remembering_Displays,2020.1.2,MacIntel,60,,,,,,,,,,,,,,,,,,,,,,,,,
0,16,16,16,1,Instructions/instr_16.png,5,20,male ,B,2020-05-12_17h24.53.586,Remembering_Displays,2020.1.2,MacIntel,60,,,,,,,,,,,,,,,,,,,,,,,,,
,,,,,,,20,male ,B,2020-05-12_17h24.53.586,Remembering_Displays,2020.1.2,MacIntel,60,1,0,1.308,1,0,5.723,0,0,0,5,1,Stimuli/practiceStimuliCube/practice2_s.png,Stimuli/practiceStimuliCube/practice2_s.png,0,9,,,,,,,,,,
,,,,,,,20,male ,B,2020-05-12_17h24.53.586,Remembering_Displays,2020.1.2,MacIntel,60,9,1,1.358,9,1,1.656,0,1,1,0,1,Stimuli/practiceStimuliCube/practice1_s.png,Stimuli/practiceStimuliCube/practice1_s.png,0,9,,,,,,,,,,
,,,,,,,20,male ,B,2020-05-12_17h24.53.586,Remembering_Displays,2020.1.2,MacIntel,60,,0,,9,0,4.169,0,2,2,4,1,Stimuli/practiceStimuliCube/practice1_s.png,Stimuli/practiceStimuliCube/practice1_d.png,1,1,,,,,,,,,,
,,,,,,,20,male ,B,2020-05-12_17h24.53.586,Remembering_Displays,2020.1.2,MacIntel,60,9,0,1.189,1,0,2.535,0,3,3,1,1,Stimuli/practiceStimuliCube/practice2_s.png,Stimuli/practiceStimuliCube/practice2_d.png,1,1,,,,,,,,,,
,,,,,,,20,male ,B,2020-05-12_17h24.53.586,Remembering_Displays,2020.1.2,MacIntel,60,,0,,9,1,0.459,0,4,4,2,1,Stimuli/practiceStimuliCube/practice3_s.png,Stimuli/practiceStimuliCube/practice3_s.png,0,9,,,,,,,,,,
,,,,,,,20,male ,B,2020-05-12_17h24.53.586,Remembering_Displays,2020.1.2,MacIntel,60,,0,,9,0,2.317,0,5,5,3,1,Stimuli/practiceStimuliCube/practice4_s.png,Stimuli/practiceStimuliCube/practice4_d.png,1,1,,,,,,,,,,
,,,,,,,20,male ,B,2020-05-12_17h24.53.586,Remembering_Displays,2020.1.2,MacIntel,60,9,0,0.36,9,0,2.857,0,6,6,6,1,Stimuli/practiceStimuliCube/practice3_s.png,Stimuli/practiceStimuliCube/practice3_d.png,1,1,,,,,,,,,,
,,,,,,,20,male ,B,2020-05-12_17h24.53.586,Remembering_Displays,2020.1.2,MacIntel,60,1,0,0.433,9,0,1.901,0,7,7,7,1,Stimuli/practiceStimuliCube/practice4_s.png,Stimuli/practiceStimuliCube/practice4_s.png,0,9,,,,,,,,,,
,,,,,,,20,male ,B,2020-05-12_17h24.53.586,Remembering_Displays,2020.1.2,MacIntel,60,,,,,,,,,,,,,,,,0,0,0,0,1,Stimuli/practiceListCubes.xlsx,Instructions/instr_practice_B.png,Practice trials completed,,
,,,,,,,20,male ,B,2020-05-12_17h24.53.586,Remembering_Displays,2020.1.2,MacIntel,60,9,0,0.396,1,0,1.036,0,0,0,9,1,Stimuli/testStimuliCube/6u_s_5.png,Stimuli/testStimuliCube/6u_d_5.png,1,1,,,,,,,,,c,3D
,,,,,,,20,male ,B,2020-05-12_17h24.53.586,Remembering_Displays,2020.1.2,MacIntel,60,1,0,0.287,1,1,1.768,0,1,1,0,1,Stimuli/testStimuliCube/6u_s_1.png,Stimuli/testStimuliCube/6u_s_1.png,0,9,,,,,,,,,c,3D
,,,,,,,20,male ,B,2020-05-12_17h24.53.586,Remembering_Displays,2020.1.2,MacIntel,60,1,1,0.72,9,1,3.04,0,2,2,19,1,Stimuli/testStimuliCube/6u_s_4_s.png,Stimuli/testStimuliCube/6u_d_4_s.png,1,1,,,,,,,,,s,3D
,,,,,,,20,male ,B,2020-05-12_17h24.53.586,Remembering_Displays,2020.1.2,MacIntel,60,9,0,0.802,9,0,2.157,0,3,3,23,1,Stimuli/testStimuliCube/6u_s_6_s.png,Stimuli/testStimuliCube/6u_d_6_s.png,1,1,,,,,,,,,s,3D
,,,,,,,20,male ,B,2020-05-12_17h24.53.586,Remembering_Displays,2020.1.2,MacIntel,60,1,1,0.573,9,1,3.791,0,4,4,13,1,Stimuli/testStimuliCube/6u_s_1_s.png,Stimuli/testStimuliCube/6u_d_1_s.png,1,1,,,,,,,,,s,3D
,,,,,,,20,male ,B,2020-05-12_17h24.53.586,Remembering_Displays,2020.1.2,MacIntel,60,9,1,0.323,9,0,1.025,0,5,5,22,1,Stimuli/testStimuliCube/6u_s_6_s.png,Stimuli/testStimuliCube/6u_s_6_s.png,0,9,,,,,,,,,s,3D
,,,,,,,20,male ,B,2020-05-12_17h24.53.586,Remembering_Displays,2020.1.2,MacIntel,60,1,1,0.719,9,1,0.491,0,6,6,1,1,Stimuli/testStimuliCube/6u_s_1.png,Stimuli/testStimuliCube/6u_d_1.png,1,1,,,,,,,,,c,3D
,,,,,,,20,male ,B,2020-05-12_17h24.53.586,Remembering_Displays,2020.1.2,MacIntel,60,1,0,0.289,9,1,1.019,0,7,7,12,1,Stimuli/testStimuliCube/6u_s_1_s.png,Stimuli/testStimuliCube/6u_s_1_s.png,0,9,,,,,,,,,s,3D
,,,,,,,20,male ,B,2020-05-12_17h24.53.586,Remembering_Displays,2020.1.2,MacIntel,60,9,1,0.451,9,1,2.191,0,8,8,6,1,Stimuli/testStimuliCube/6u_s_4.png,Stimuli/testStimuliCube/6u_s_4.png,0,9,,,,,,,,,c,3D
,,,,,,,20,male ,B,2020-05-12_17h24.53.586,Remembering_Displays,2020.1.2,MacIntel,60,1,0,0.434,9,1,0.818,0,9,9,20,1,Stimuli/testStimuliCube/6u_s_5_s.png,Stimuli/testStimuliCube/6u_s_5_s.png,0,9,,,,,,,,,s,3D
,,,,,,,20,male ,B,2020-05-12_17h24.53.586,Remembering_Displays,2020.1.2,MacIntel,60,9,0,0.686,1,1,3.028,0,10,10,7,1,Stimuli/testStimuliCube/6u_s_4.png,Stimuli/testStimuliCube/6u_d_4.png,1,1,,,,,,,,,c,3D
,,,,,,,20,male ,B,2020-05-12_17h24.53.586,Remembering_Displays,2020.1.2,MacIntel,60,1,0,0.314,9,0,3.958,0,11,11,8,1,Stimuli/testStimuliCube/6u_s_5.png,Stimuli/testStimuliCube/6u_s_5.png,0,9,,,,,,,,,c,3D
,,,,,,,20,male ,B,2020-05-12_17h24.53.586,Remembering_Displays,2020.1.2,MacIntel,60,1,1,0.724,9,1,2.008,0,12,12,21,1,Stimuli/testStimuliCube/6u_s_5_s.png,Stimuli/testStimuliCube/6u_d_5_s.png,1,1,,,,,,,,,s,3D
,,,,,,,20,male ,B,2020-05-12_17h24.53.586,Remembering_Displays,2020.1.2,MacIntel,60,1,1,0.621,9,0,2.891,0,13,13,11,1,Stimuli/testStimuliCube/6u_s_6.png,Stimuli/testStimuliCube/6u_d_6.png,1,1,,,,,,,,,c,3D
,,,,,,,20,male ,B,2020-05-12_17h24.53.586,Remembering_Displays,2020.1.2,MacIntel,60,1,0,0.553,9,1,2.269,0,14,14,2,1,Stimuli/testStimuliCube/6u_s_2.png,Stimuli/testStimuliCube/6u_s_2.png,0,9,,,,,,,,,c,3D
,,,,,,,20,male ,B,2020-05-12_17h24.53.586,Remembering_Displays,2020.1.2,MacIntel,60,9,0,0.775,1,1,1.108,0,15,15,15,1,Stimuli/testStimuliCube/6u_s_2_s.png,Stimuli/testStimuliCube/6u_d_2_s.png,1,1,,,,,,,,,s,3D
,,,,,,,20,male ,B,2020-05-12_17h24.53.586,Remembering_Displays,2020.1.2,MacIntel,60,9,1,0.952,9,0,0.788,0,16,16,4,1,Stimuli/testStimuliCube/6u_s_3.png,Stimuli/testStimuliCube/6u_s_3.png,0,9,,,,,,,,,c,3D
,,,,,,,20,male ,B,2020-05-12_17h24.53.586,Remembering_Displays,2020.1.2,MacIntel,60,1,1,0.689,9,0,0.673,0,17,17,3,1,Stimuli/testStimuliCube/6u_s_2.png,Stimuli/testStimuliCube/6u_d_2.png,1,1,,,,,,,,,c,3D
,,,,,,,20,male ,B,2020-05-12_17h24.53.586,Remembering_Displays,2020.1.2,MacIntel,60,1,0,0.693,9,0,0.502,0,18,18,18,1,Stimuli/testStimuliCube/6u_s_4_s.png,Stimuli/testStimuliCube/6u_s_4_s.png,0,9,,,,,,,,,s,3D
,,,,,,,20,male ,B,2020-05-12_17h24.53.586,Remembering_Displays,2020.1.2,MacIntel,60,9,0,0.671,9,0,1.789,0,19,19,17,1,Stimuli/testStimuliCube/6u_s_3_s.png,Stimuli/testStimuliCube/6u_d_3_s.png,1,1,,,,,,,,,s,3D
,,,,,,,20,male ,B,2020-05-12_17h24.53.586,Remembering_Displays,2020.1.2,MacIntel,60,9,1,0.585,9,1,1.093,0,20,20,16,1,Stimuli/testStimuliCube/6u_s_3_s.png,Stimuli/testStimuliCube/6u_s_3_s.png,0,9,,,,,,,,,s,3D
,,,,,,,20,male ,B,2020-05-12_17h24.53.586,Remembering_Displays,2020.1.2,MacIntel,60,9,0,0.713,1,1,1.218,0,21,21,5,1,Stimuli/testStimuliCube/6u_s_3.png,Stimuli/testStimuliCube/6u_d_3.png,1,1,,,,,,,,,c,3D
,,,,,,,20,male ,B,2020-05-12_17h24.53.586,Remembering_Displays,2020.1.2,MacIntel,60,9,1,1.421,9,1,2.375,0,22,22,14,1,Stimuli/testStimuliCube/6u_s_2_s.png,Stimuli/testStimuliCube/6u_s_2_s.png,0,9,,,,,,,,,s,3D
,,,,,,,20,male ,B,2020-05-12_17h24.53.586,Remembering_Displays,2020.1.2,MacIntel,60,9,1,0.655,1,1,3.524,0,23,23,10,1,Stimuli/testStimuliCube/6u_s_6.png,Stimuli/testStimuliCube/6u_s_6.png,0,9,,,,,,,,,c,3D
,,,,,,,20,male ,B,2020-05-12_17h24.53.586,Remembering_Displays,2020.1.2,MacIntel,60,,,,,,,,,,,,,,,,0,1,1,1,1,Stimuli/trialListCubes1.xlsx,Instructions/instr_19.png,Progress: 24 of 192 trials completed,,
,,,,,,,20,male ,B,2020-05-12_17h24.53.586,Remembering_Displays,2020.1.2,MacIntel,60,9,0,0.627,1,1,3.008,0,0,0,1,1,Stimuli/practiceStimuliSquare/practice2_s.png,Stimuli/practiceStimuliSquare/practice2_d.png,1,1,,,,,,,,,,
,,,,,,,20,male ,B,2020-05-12_17h24.53.586,Remembering_Displays,2020.1.2,MacIntel,60,9,1,0.521,9,0,1.857,0,1,1,7,1,Stimuli/practiceStimuliSquare/practice4_s.png,Stimuli/practiceStimuliSquare/practice4_s.png,0,9,,,,,,,,,,
,,,,,,,20,male ,B,2020-05-12_17h24.53.586,Remembering_Displays,2020.1.2,MacIntel,60,9,0,0.638,1,1,2.069,0,2,2,6,1,Stimuli/practiceStimuliSquare/practice3_s.png,Stimuli/practiceStimuliSquare/practice3_d.png,1,1,,,,,,,,,,
,,,,,,,20,male ,B,2020-05-12_17h24.53.586,Remembering_Displays,2020.1.2,MacIntel,60,9,0,1.244,1,0,1.041,0,3,3,3,1,Stimuli/practiceStimuliSquare/practice4_s.png,Stimuli/practiceStimuliSquare/practice4_d.png,1,1,,,,,,,,,,
,,,,,,,20,male ,B,2020-05-12_17h24.53.586,Remembering_Displays,2020.1.2,MacIntel,60,9,1,0.42,9,1,1.392,0,4,4,5,1,Stimuli/practiceStimuliSquare/practice2_s.png,Stimuli/practiceStimuliSquare/practice2_s.png,0,9,,,,,,,,,,
,,,,,,,20,male ,B,2020-05-12_17h24.53.586,Remembering_Displays,2020.1.2,MacIntel,60,9,1,0.622,1,1,1.409,0,5,5,0,1,Stimuli/practiceStimuliSquare/practice1_s.png,Stimuli/practiceStimuliSquare/practice1_s.png,0,9,,,,,,,,,,
,,,,,,,20,male ,B,2020-05-12_17h24.53.586,Remembering_Displays,2020.1.2,MacIntel,60,1,1,1.005,9,1,3.292,0,6,6,4,1,Stimuli/practiceStimuliSquare/practice1_s.png,Stimuli/practiceStimuliSquare/practice1_d.png,1,1,,,,,,,,,,
,,,,,,,20,male ,B,2020-05-12_17h24.53.586,Remembering_Displays,2020.1.2,MacIntel,60,9,1,0.889,1,1,1.56,0,7,7,2,1,Stimuli/practiceStimuliSquare/practice3_s.png,Stimuli/practiceStimuliSquare/practice3_s.png,0,9,,,,,,,,,,
,,,,,,,20,male ,B,2020-05-12_17h24.53.586,Remembering_Displays,2020.1.2,MacIntel,60,,,,,,,,,,,,,,,,0,2,2,2,1,Stimuli/practiceListSquares.xlsx,Instructions/instr_practice_A.png,Practice trials completed,,
,,,,,,,20,male ,B,2020-05-12_17h24.53.586,Remembering_Displays,2020.1.2,MacIntel,60,9,1,0.636,1,1,1.342,0,0,0,8,1,Stimuli/testStimuliSquare/6u_s_23_2D.png,Stimuli/testStimuliSquare/6u_s_23_2D.png,0,9,,,,,,,,,c,2D
,,,,,,,20,male ,B,2020-05-12_17h24.53.586,Remembering_Displays,2020.1.2,MacIntel,60,9,1,0.714,9,1,0.408,0,1,1,18,1,Stimuli/testStimuliSquare/6u_s_22_s_2D.png,Stimuli/testStimuliSquare/6u_s_22_s_2D.png,0,9,,,,,,,,,s,2D
,,,,,,,20,male ,B,2020-05-12_17h24.53.586,Remembering_Displays,2020.1.2,MacIntel,60,1,0,0.712,9,1,2.603,0,2,2,20,1,Stimuli/testStimuliSquare/6u_s_23_s_2D.png,Stimuli/testStimuliSquare/6u_s_23_s_2D.png,0,9,,,,,,,,,s,2D
,,,,,,,20,male ,B,2020-05-12_17h24.53.586,Remembering_Displays,2020.1.2,MacIntel,60,1,0,0.826,9,1,2.977,0,3,3,12,1,Stimuli/testStimuliSquare/6u_s_19_s_2D.png,Stimuli/testStimuliSquare/6u_s_19_s_2D.png,0,9,,,,,,,,,s,2D
,,,,,,,20,male ,B,2020-05-12_17h24.53.586,Remembering_Displays,2020.1.2,MacIntel,60,1,1,0.952,1,1,4.186,0,4,4,3,1,Stimuli/testStimuliSquare/6u_s_20_2D.png,Stimuli/testStimuliSquare/6u_d_20_2D.png,1,1,,,,,,,,,c,2D
,,,,,,,20,male ,B,2020-05-12_17h24.53.586,Remembering_Displays,2020.1.2,MacIntel,60,9,0,0.856,9,1,1.967,0,5,5,5,1,Stimuli/testStimuliSquare/6u_s_21_2D.png,Stimuli/testStimuliSquare/6u_d_21_2D.png,1,1,,,,,,,,,c,2D
,,,,,,,20,male ,B,2020-05-12_17h24.53.586,Remembering_Displays,2020.1.2,MacIntel,60,1,1,1.022,1,1,1.275,0,6,6,11,1,Stimuli/testStimuliSquare/6u_s_24_2D.png,Stimuli/testStimuliSquare/6u_d_24_2D.png,1,1,,,,,,,,,c,2D
,,,,,,,20,male ,B,2020-05-12_17h24.53.586,Remembering_Displays,2020.1.2,MacIntel,60,9,1,0.671,9,0,1.286,0,7,7,14,1,Stimuli/testStimuliSquare/6u_s_20_s_2D.png,Stimuli/testStimuliSquare/6u_s_20_s_2D.png,0,9,,,,,,,,,s,2D
,,,,,,,20,male ,B,2020-05-12_17h24.53.586,Remembering_Displays,2020.1.2,MacIntel,60,1,1,0.592,9,0,1.285,0,8,8,1,1,Stimuli/testStimuliSquare/6u_s_19_2D.png,Stimuli/testStimuliSquare/6u_d_19_2D.png,1,1,,,,,,,,,c,2D
,,,,,,,20,male ,B,2020-05-12_17h24.53.586,Remembering_Displays,2020.1.2,MacIntel,60,,0,,9,1,3.462,0,9,9,22,1,Stimuli/testStimuliSquare/6u_s_24_s_2D.png,Stimuli/testStimuliSquare/6u_s_24_s_2D.png,0,9,,,,,,,,,s,2D
,,,,,,,20,male ,B,2020-05-12_17h24.53.586,Remembering_Displays,2020.1.2,MacIntel,60,9,1,0.568,9,0,1.308,0,10,10,6,1,Stimuli/testStimuliSquare/6u_s_22_2D.png,Stimuli/testStimuliSquare/6u_s_22_2D.png,0,9,,,,,,,,,c,2D
,,,,,,,20,male ,B,2020-05-12_17h24.53.586,Remembering_Displays,2020.1.2,MacIntel,60,1,1,0.69,1,0,1.309,0,11,11,19,1,Stimuli/testStimuliSquare/6u_s_22_s_2D.png,Stimuli/testStimuliSquare/6u_d_22_s_2D.png,1,1,,,,,,,,,s,2D
,,,,,,,20,male ,B,2020-05-12_17h24.53.586,Remembering_Displays,2020.1.2,MacIntel,60,1,1,0.625,1,1,1.693,0,12,12,9,1,Stimuli/testStimuliSquare/6u_s_23_2D.png,Stimuli/testStimuliSquare/6u_d_23_2D.png,1,1,,,,,,,,,c,2D
,,,,,,,20,male ,B,2020-05-12_17h24.53.586,Remembering_Displays,2020.1.2,MacIntel,60,1,1,0.756,1,0,1.402,0,13,13,7,1,Stimuli/testStimuliSquare/6u_s_22_2D.png,Stimuli/testStimuliSquare/6u_d_22_2D.png,1,1,,,,,,,,,c,2D
,,,,,,,20,male ,B,2020-05-12_17h24.53.586,Remembering_Displays,2020.1.2,MacIntel,60,9,1,0.58,9,1,0.461,0,14,14,10,1,Stimuli/testStimuliSquare/6u_s_24_2D.png,Stimuli/testStimuliSquare/6u_s_24_2D.png,0,9,,,,,,,,,c,2D
,,,,,,,20,male ,B,2020-05-12_17h24.53.586,Remembering_Displays,2020.1.2,MacIntel,60,1,1,0.749,1,0,1.524,0,15,15,23,1,Stimuli/testStimuliSquare/6u_s_24_s_2D.png,Stimuli/testStimuliSquare/6u_d_24_s_2D.png,1,1,,,,,,,,,s,2D
,,,,,,,20,male ,B,2020-05-12_17h24.53.586,Remembering_Displays,2020.1.2,MacIntel,60,1,0,0.603,9,0,1.41,0,16,16,4,1,Stimuli/testStimuliSquare/6u_s_21_2D.png,Stimuli/testStimuliSquare/6u_s_21_2D.png,0,9,,,,,,,,,c,2D
,,,,,,,20,male ,B,2020-05-12_17h24.53.586,Remembering_Displays,2020.1.2,MacIntel,60,9,0,0.747,1,1,4.678,0,17,17,21,1,Stimuli/testStimuliSquare/6u_s_23_s_2D.png,Stimuli/testStimuliSquare/6u_d_23_s_2D.png,1,1,,,,,,,,,s,2D
,,,,,,,20,male ,B,2020-05-12_17h24.53.586,Remembering_Displays,2020.1.2,MacIntel,60,9,1,0.659,9,1,1.086,0,18,18,16,1,Stimuli/testStimuliSquare/6u_s_21_s_2D.png,Stimuli/testStimuliSquare/6u_s_21_s_2D.png,0,9,,,,,,,,,s,2D
,,,,,,,20,male ,B,2020-05-12_17h24.53.586,Remembering_Displays,2020.1.2,MacIntel,60,9,1,0.834,1,1,0.957,0,19,19,0,1,Stimuli/testStimuliSquare/6u_s_19_2D.png,Stimuli/testStimuliSquare/6u_s_19_2D.png,0,9,,,,,,,,,c,2D
,,,,,,,20,male ,B,2020-05-12_17h24.53.586,Remembering_Displays,2020.1.2,MacIntel,60,1,1,0.794,1,1,1.541,0,20,20,17,1,Stimuli/testStimuliSquare/6u_s_21_s_2D.png,Stimuli/testStimuliSquare/6u_d_21_s_2D.png,1,1,,,,,,,,,s,2D
,,,,,,,20,male ,B,2020-05-12_17h24.53.586,Remembering_Displays,2020.1.2,MacIntel,60,1,1,0.943,9,0,1.668,0,21,21,13,1,Stimuli/testStimuliSquare/6u_s_19_s_2D.png,Stimuli/testStimuliSquare/6u_d_19_s_2D.png,1,1,,,,,,,,,s,2D
,,,,,,,20,male ,B,2020-05-12_17h24.53.586,Remembering_Displays,2020.1.2,MacIntel,60,9,0,0.827,9,1,0.393,0,22,22,15,1,Stimuli/testStimuliSquare/6u_s_20_s_2D.png,Stimuli/testStimuliSquare/6u_d_20_s_2D.png,1,1,,,,,,,,,s,2D
,,,,,,,20,male ,B,2020-05-12_17h24.53.586,Remembering_Displays,2020.1.2,MacIntel,60,9,1,0.859,9,1,0.543,0,23,23,2,1,Stimuli/testStimuliSquare/6u_s_20_2D.png,Stimuli/testStimuliSquare/6u_s_20_2D.png,0,9,,,,,,,,,c,2D
,,,,,,,20,male ,B,2020-05-12_17h24.53.586,Remembering_Displays,2020.1.2,MacIntel,60,,,,,,,,,,,,,,,,0,3,3,3,1,Stimuli/trialListSquares4.xlsx,Instructions/instr_18.png,Progress: 48 of 192 trials completed,,
,,,,,,,20,male ,B,2020-05-12_17h24.53.586,Remembering_Displays,2020.1.2,MacIntel,60,1,0,0.441,1,1,0.852,0,0,0,22,1,Stimuli/testStimuliCube/6u_s_12_s.png,Stimuli/testStimuliCube/6u_s_12_s.png,0,9,,,,,,,,,s,3D
,,,,,,,20,male ,B,2020-05-12_17h24.53.586,Remembering_Displays,2020.1.2,MacIntel,60,9,0,0.629,1,0,0.441,0,1,1,23,1,Stimuli/testStimuliCube/6u_s_12_s.png,Stimuli/testStimuliCube/6u_d_12_s.png,1,1,,,,,,,,,s,3D
,,,,,,,20,male ,B,2020-05-12_17h24.53.586,Remembering_Displays,2020.1.2,MacIntel,60,9,1,1.106,9,1,0.625,0,2,2,10,1,Stimuli/testStimuliCube/6u_s_12.png,Stimuli/testStimuliCube/6u_s_12.png,0,9,,,,,,,,,c,3D
,,,,,,,20,male ,B,2020-05-12_17h24.53.586,Remembering_Displays,2020.1.2,MacIntel,60,9,1,0.868,9,1,0.785,0,3,3,8,1,Stimuli/testStimuliCube/6u_s_11.png,Stimuli/testStimuliCube/6u_s_11.png,0,9,,,,,,,,,c,3D
,,,,,,,20,male ,B,2020-05-12_17h24.53.586,Remembering_Displays,2020.1.2,MacIntel,60,9,1,0.685,1,1,1.055,0,4,4,6,1,Stimuli/testStimuliCube/6u_s_10.png,Stimuli/testStimuliCube/6u_s_10.png,0,9,,,,,,,,,c,3D
,,,,,,,20,male ,B,2020-05-12_17h24.53.586,Remembering_Displays,2020.1.2,MacIntel,60,9,0,1.105,1,1,1.425,0,5,5,15,1,Stimuli/testStimuliCube/6u_s_8_s.png,Stimuli/testStimuliCube/6u_d_8_s.png,1,1,,,,,,,,,s,3D
,,,,,,,20,male ,B,2020-05-12_17h24.53.586,Remembering_Displays,2020.1.2,MacIntel,60,9,0,0.737,1,0,0.391,0,6,6,17,1,Stimuli/testStimuliCube/6u_s_9_s.png,Stimuli/testStimuliCube/6u_d_9_s.png,1,1,,,,,,,,,s,3D
,,,,,,,20,male ,B,2020-05-12_17h24.53.586,Remembering_Displays,2020.1.2,MacIntel,60,9,1,0.408,9,1,0.885,0,7,7,12,1,Stimuli/testStimuliCube/6u_s_7_s.png,Stimuli/testStimuliCube/6u_s_7_s.png,0,9,,,,,,,,,s,3D
,,,,,,,20,male ,B,2020-05-12_17h24.53.586,Remembering_Displays,2020.1.2,MacIntel,60,9,0,0.651,1,1,1.572,0,8,8,3,1,Stimuli/testStimuliCube/6u_s_8.png,Stimuli/testStimuliCube/6u_d_8.png,1,1,,,,,,,,,c,3D
,,,,,,,20,male ,B,2020-05-12_17h24.53.586,Remembering_Displays,2020.1.2,MacIntel,60,1,1,0.902,1,0,1.185,0,9,9,11,1,Stimuli/testStimuliCube/6u_s_12.png,Stimuli/testStimuliCube/6u_d_12.png,1,1,,,,,,,,,c,3D
,,,,,,,20,male ,B,2020-05-12_17h24.53.586,Remembering_Displays,2020.1.2,MacIntel,60,1,1,0.776,1,0,0.66,0,10,10,19,1,Stimuli/testStimuliCube/6u_s_10_s.png,Stimuli/testStimuliCube/6u_d_10_s.png,1,1,,,,,,,,,s,3D
,,,,,,,20,male ,B,2020-05-12_17h24.53.586,Remembering_Displays,2020.1.2,MacIntel,60,1,1,1.139,9,1,0.521,0,11,11,1,1,Stimuli/testStimuliCube/6u_s_7.png,Stimuli/testStimuliCube/6u_d_7.png,1,1,,,,,,,,,c,3D
,,,,,,,20,male ,B,2020-05-12_17h24.53.586,Remembering_Displays,2020.1.2,MacIntel,60,9,1,0.641,9,1,0.778,0,12,12,20,1,Stimuli/testStimuliCube/6u_s_11_s.png,Stimuli/testStimuliCube/6u_s_11_s.png,0,9,,,,,,,,,s,3D
,,,,,,,20,male ,B,2020-05-12_17h24.53.586,Remembering_Displays,2020.1.2,MacIntel,60,9,1,0.873,9,0,0.452,0,13,13,18,1,Stimuli/testStimuliCube/6u_s_10_s.png,Stimuli/testStimuliCube/6u_s_10_s.png,0,9,,,,,,,,,s,3D
,,,,,,,20,male ,B,2020-05-12_17h24.53.586,Remembering_Displays,2020.1.2,MacIntel,60,9,1,1.215,9,1,0.753,0,14,14,2,1,Stimuli/testStimuliCube/6u_s_8.png,Stimuli/testStimuliCube/6u_s_8.png,0,9,,,,,,,,,c,3D
,,,,,,,20,male ,B,2020-05-12_17h24.53.586,Remembering_Displays,2020.1.2,MacIntel,60,1,1,0.898,9,0,0.623,0,15,15,13,1,Stimuli/testStimuliCube/6u_s_7_s.png,Stimuli/testStimuliCube/6u_d_7_s.png,1,1,,,,,,,,,s,3D
,,,,,,,20,male ,B,2020-05-12_17h24.53.586,Remembering_Displays,2020.1.2,MacIntel,60,9,1,0.524,9,1,0.588,0,16,16,14,1,Stimuli/testStimuliCube/6u_s_8_s.png,Stimuli/testStimuliCube/6u_s_8_s.png,0,9,,,,,,,,,s,3D
,,,,,,,20,male ,B,2020-05-12_17h24.53.586,Remembering_Displays,2020.1.2,MacIntel,60,1,1,0.794,9,1,0.675,0,17,17,9,1,Stimuli/testStimuliCube/6u_s_11.png,Stimuli/testStimuliCube/6u_d_11.png,1,1,,,,,,,,,c,3D
,,,,,,,20,male ,B,2020-05-12_17h24.53.586,Remembering_Displays,2020.1.2,MacIntel,60,9,1,0.501,9,1,0.485,0,18,18,4,1,Stimuli/testStimuliCube/6u_s_9.png,Stimuli/testStimuliCube/6u_s_9.png,0,9,,,,,,,,,c,3D
,,,,,,,20,male ,B,2020-05-12_17h24.53.586,Remembering_Displays,2020.1.2,MacIntel,60,1,1,0.659,9,0,0.808,0,19,19,21,1,Stimuli/testStimuliCube/6u_s_11_s.png,Stimuli/testStimuliCube/6u_d_11_s.png,1,1,,,,,,,,,s,3D
,,,,,,,20,male ,B,2020-05-12_17h24.53.586,Remembering_Displays,2020.1.2,MacIntel,60,1,0,0.733,9,1,0.591,0,20,20,0,1,Stimuli/testStimuliCube/6u_s_7.png,Stimuli/testStimuliCube/6u_s_7.png,0,9,,,,,,,,,c,3D
,,,,,,,20,male ,B,2020-05-12_17h24.53.586,Remembering_Displays,2020.1.2,MacIntel,60,1,0,0.659,1,1,0.82,0,21,21,16,1,Stimuli/testStimuliCube/6u_s_9_s.png,Stimuli/testStimuliCube/6u_s_9_s.png,0,9,,,,,,,,,s,3D
,,,,,,,20,male ,B,2020-05-12_17h24.53.586,Remembering_Displays,2020.1.2,MacIntel,60,9,0,0.374,1,1,0.724,0,22,22,7,1,Stimuli/testStimuliCube/6u_s_10.png,Stimuli/testStimuliCube/6u_d_10.png,1,1,,,,,,,,,c,3D
,,,,,,,20,male ,B,2020-05-12_17h24.53.586,Remembering_Displays,2020.1.2,MacIntel,60,9,0,0.605,1,1,0.702,0,23,23,5,1,Stimuli/testStimuliCube/6u_s_9.png,Stimuli/testStimuliCube/6u_d_9.png,1,1,,,,,,,,,c,3D
,,,,,,,20,male ,B,2020-05-12_17h24.53.586,Remembering_Displays,2020.1.2,MacIntel,60,,,,,,,,,,,,,,,,0,4,4,4,1,Stimuli/trialListCubes2.xlsx,Instructions/instr_19.png,Progress: 72 of 192 trials completed,,
,,,,,,,20,male ,B,2020-05-12_17h24.53.586,Remembering_Displays,2020.1.2,MacIntel,60,9,1,0.369,9,1,0.443,0,0,0,2,1,Stimuli/testStimuliSquare/6u_s_14_2D.png,Stimuli/testStimuliSquare/6u_s_14_2D.png,0,9,,,,,,,,,c,2D
,,,,,,,20,male ,B,2020-05-12_17h24.53.586,Remembering_Displays,2020.1.2,MacIntel,60,9,0,0.709,9,0,1.642,0,1,1,23,1,Stimuli/testStimuliSquare/6u_s_18_s_2D.png,Stimuli/testStimuliSquare/6u_d_18_s_2D.png,1,1,,,,,,,,,s,2D
,,,,,,,20,male ,B,2020-05-12_17h24.53.586,Remembering_Displays,2020.1.2,MacIntel,60,9,1,0.452,9,0,0.718,0,2,2,14,1,Stimuli/testStimuliSquare/6u_s_14_s_2D.png,Stimuli/testStimuliSquare/6u_s_14_s_2D.png,0,9,,,,,,,,,s,2D
,,,,,,,20,male ,B,2020-05-12_17h24.53.586,Remembering_Displays,2020.1.2,MacIntel,60,9,0,0.434,9,0,0.576,0,3,3,5,1,Stimuli/testStimuliSquare/6u_s_15_2D.png,Stimuli/testStimuliSquare/6u_d_15_2D.png,1,1,,,,,,,,,c,2D
,,,,,,,20,male ,B,2020-05-12_17h24.53.586,Remembering_Displays,2020.1.2,MacIntel,60,1,1,0.836,1,0,0.441,0,4,4,1,1,Stimuli/testStimuliSquare/6u_s_13_2D.png,Stimuli/testStimuliSquare/6u_d_13_2D.png,1,1,,,,,,,,,c,2D
,,,,,,,20,male ,B,2020-05-12_17h24.53.586,Remembering_Displays,2020.1.2,MacIntel,60,9,1,0.58,9,0,0.452,0,5,5,20,1,Stimuli/testStimuliSquare/6u_s_17_s_2D.png,Stimuli/testStimuliSquare/6u_s_17_s_2D.png,0,9,,,,,,,,,s,2D
,,,,,,,20,male ,B,2020-05-12_17h24.53.586,Remembering_Displays,2020.1.2,MacIntel,60,9,1,0.786,1,1,1.856,0,6,6,22,1,Stimuli/testStimuliSquare/6u_s_18_s_2D.png,Stimuli/testStimuliSquare/6u_s_18_s_2D.png,0,9,,,,,,,,,s,2D
,,,,,,,20,male ,B,2020-05-12_17h24.53.586,Remembering_Displays,2020.1.2,MacIntel,60,9,1,1.042,9,1,1.117,0,7,7,12,1,Stimuli/testStimuliSquare/6u_s_13_s_2D.png,Stimuli/testStimuliSquare/6u_s_13_s_2D.png,0,9,,,,,,,,,s,2D
,,,,,,,20,male ,B,2020-05-12_17h24.53.586,Remembering_Displays,2020.1.2,MacIntel,60,9,1,0.701,1,1,0.884,0,8,8,16,1,Stimuli/testStimuliSquare/6u_s_15_s_2D.png,Stimuli/testStimuliSquare/6u_s_15_s_2D.png,0,9,,,,,,,,,s,2D
,,,,,,,20,male ,B,2020-05-12_17h24.53.586,Remembering_Displays,2020.1.2,MacIntel,60,1,0,0.622,9,1,0.511,0,9,9,0,1,Stimuli/testStimuliSquare/6u_s_13_2D.png,Stimuli/testStimuliSquare/6u_s_13_2D.png,0,9,,,,,,,,,c,2D
,,,,,,,20,male ,B,2020-05-12_17h24.53.586,Remembering_Displays,2020.1.2,MacIntel,60,1,1,0.624,1,0,0.906,0,10,10,13,1,Stimuli/testStimuliSquare/6u_s_13_s_2D.png,Stimuli/testStimuliSquare/6u_d_13_s_2D.png,1,1,,,,,,,,,s,2D
,,,,,,,20,male ,B,2020-05-12_17h24.53.586,Remembering_Displays,2020.1.2,MacIntel,60,1,1,0.718,9,1,0.544,0,11,11,9,1,Stimuli/testStimuliSquare/6u_s_17_2D.png,Stimuli/testStimuliSquare/6u_d_17_2D.png,1,1,,,,,,,,,c,2D
,,,,,,,20,male ,B,2020-05-12_17h24.53.586,Remembering_Displays,2020.1.2,MacIntel,60,9,0,0.709,1,1,0.426,0,12,12,21,1,Stimuli/testStimuliSquare/6u_s_17_s_2D.png,Stimuli/testStimuliSquare/6u_d_17_s_2D.png,1,1,,,,,,,,,s,2D
,,,,,,,20,male ,B,2020-05-12_17h24.53.586,Remembering_Displays,2020.1.2,MacIntel,60,9,1,0.636,9,0,0.633,0,13,13,6,1,Stimuli/testStimuliSquare/6u_s_16_2D.png,Stimuli/testStimuliSquare/6u_s_16_2D.png,0,9,,,,,,,,,c,2D
,,,,,,,20,male ,B,2020-05-12_17h24.53.586,Remembering_Displays,2020.1.2,MacIntel,60,1,1,0.749,9,1,0.689,0,14,14,3,1,Stimuli/testStimuliSquare/6u_s_14_2D.png,Stimuli/testStimuliSquare/6u_d_14_2D.png,1,1,,,,,,,,,c,2D
,,,,,,,20,male ,B,2020-05-12_17h24.53.586,Remembering_Displays,2020.1.2,MacIntel,60,9,0,0.675,9,1,1.024,0,15,15,7,1,Stimuli/testStimuliSquare/6u_s_16_2D.png,Stimuli/testStimuliSquare/6u_d_16_2D.png,1,1,,,,,,,,,c,2D
,,,,,,,20,male ,B,2020-05-12_17h24.53.586,Remembering_Displays,2020.1.2,MacIntel,60,1,1,0.695,9,1,2.175,0,16,16,15,1,Stimuli/testStimuliSquare/6u_s_14_s_2D.png,Stimuli/testStimuliSquare/6u_d_14_s_2D.png,1,1,,,,,,,,,s,2D
,,,,,,,20,male ,B,2020-05-12_17h24.53.586,Remembering_Displays,2020.1.2,MacIntel,60,,0,,9,1,1.488,0,17,17,8,1,Stimuli/testStimuliSquare/6u_s_17_2D.png,Stimuli/testStimuliSquare/6u_s_17_2D.png,0,9,,,,,,,,,c,2D
,,,,,,,20,male ,B,2020-05-12_17h24.53.586,Remembering_Displays,2020.1.2,MacIntel,60,1,0,0.817,9,0,0.809,0,18,18,10,1,Stimuli/testStimuliSquare/6u_s_18_2D.png,Stimuli/testStimuliSquare/6u_s_18_2D.png,0,9,,,,,,,,,c,2D
,,,,,,,20,male ,B,2020-05-12_17h24.53.586,Remembering_Displays,2020.1.2,MacIntel,60,1,1,0.67,1,1,2.268,0,19,19,19,1,Stimuli/testStimuliSquare/6u_s_16_s_2D.png,Stimuli/testStimuliSquare/6u_d_16_s_2D.png,1,1,,,,,,,,,s,2D
,,,,,,,20,male ,B,2020-05-12_17h24.53.586,Remembering_Displays,2020.1.2,MacIntel,60,1,1,0.84,9,0,2.435,0,20,20,11,1,Stimuli/testStimuliSquare/6u_s_18_2D.png,Stimuli/testStimuliSquare/6u_d_18_2D.png,1,1,,,,,,,,,c,2D
,,,,,,,20,male ,B,2020-05-12_17h24.53.586,Remembering_Displays,2020.1.2,MacIntel,60,1,0,0.853,9,1,0.769,0,21,21,4,1,Stimuli/testStimuliSquare/6u_s_15_2D.png,Stimuli/testStimuliSquare/6u_s_15_2D.png,0,9,,,,,,,,,c,2D
,,,,,,,20,male ,B,2020-05-12_17h24.53.586,Remembering_Displays,2020.1.2,MacIntel,60,1,0,0.586,9,1,0.451,0,22,22,18,1,Stimuli/testStimuliSquare/6u_s_16_s_2D.png,Stimuli/testStimuliSquare/6u_s_16_s_2D.png,0,9,,,,,,,,,s,2D
,,,,,,,20,male ,B,2020-05-12_17h24.53.586,Remembering_Displays,2020.1.2,MacIntel,60,9,0,0.653,1,1,0.486,0,23,23,17,1,Stimuli/testStimuliSquare/6u_s_15_s_2D.png,Stimuli/testStimuliSquare/6u_d_15_s_2D.png,1,1,,,,,,,,,s,2D
,,,,,,,20,male ,B,2020-05-12_17h24.53.586,Remembering_Displays,2020.1.2,MacIntel,60,,,,,,,,,,,,,,,,0,5,5,5,1,Stimuli/trialListSquares3.xlsx,Instructions/instr_18.png,Progress: 96 of 192 trials completed,,
,,,,,,,20,male ,B,2020-05-12_17h24.53.586,Remembering_Displays,2020.1.2,MacIntel,60,1,1,0.668,9,1,1.477,0,0,0,21,1,Stimuli/testStimuliCube/6u_s_17_s.png,Stimuli/testStimuliCube/6u_d_17_s.png,1,1,,,,,,,,,s,3D
,,,,,,,20,male ,B,2020-05-12_17h24.53.586,Remembering_Displays,2020.1.2,MacIntel,60,1,1,0.688,1,1,1.778,0,1,1,13,1,Stimuli/testStimuliCube/6u_s_13_s.png,Stimuli/testStimuliCube/6u_d_13_s.png,1,1,,,,,,,,,s,3D
,,,,,,,20,male ,B,2020-05-12_17h24.53.586,Remembering_Displays,2020.1.2,MacIntel,60,9,1,0.68,9,1,0.474,0,2,2,18,1,Stimuli/testStimuliCube/6u_s_16_s.png,Stimuli/testStimuliCube/6u_s_16_s.png,0,9,,,,,,,,,s,3D
,,,,,,,20,male ,B,2020-05-12_17h24.53.586,Remembering_Displays,2020.1.2,MacIntel,60,9,1,0.797,1,1,1.001,0,3,3,2,1,Stimuli/testStimuliCube/6u_s_14.png,Stimuli/testStimuliCube/6u_s_14.png,0,9,,,,,,,,,c,3D
,,,,,,,20,male ,B,2020-05-12_17h24.53.586,Remembering_Displays,2020.1.2,MacIntel,60,9,1,0.603,1,1,1.224,0,4,4,4,1,Stimuli/testStimuliCube/6u_s_15.png,Stimuli/testStimuliCube/6u_s_15.png,0,9,,,,,,,,,c,3D
,,,,,,,20,male ,B,2020-05-12_17h24.53.586,Remembering_Displays,2020.1.2,MacIntel,60,9,1,0.569,9,1,0.69,0,5,5,10,1,Stimuli/testStimuliCube/6u_s_18.png,Stimuli/testStimuliCube/6u_s_18.png,0,9,,,,,,,,,c,3D
,,,,,,,20,male ,B,2020-05-12_17h24.53.586,Remembering_Displays,2020.1.2,MacIntel,60,9,0,0.929,1,0,0.94,0,6,6,7,1,Stimuli/testStimuliCube/6u_s_16.png,Stimuli/testStimuliCube/6u_d_16.png,1,1,,,,,,,,,c,3D
,,,,,,,20,male ,B,2020-05-12_17h24.53.586,Remembering_Displays,2020.1.2,MacIntel,60,9,0,0.534,9,1,1.323,0,7,7,9,1,Stimuli/testStimuliCube/6u_s_17.png,Stimuli/testStimuliCube/6u_d_17.png,1,1,,,,,,,,,c,3D
,,,,,,,20,male ,B,2020-05-12_17h24.53.586,Remembering_Displays,2020.1.2,MacIntel,60,1,1,1.109,1,1,0.835,0,8,8,5,1,Stimuli/testStimuliCube/6u_s_15.png,Stimuli/testStimuliCube/6u_d_15.png,1,1,,,,,,,,,c,3D
,,,,,,,20,male ,B,2020-05-12_17h24.53.586,Remembering_Displays,2020.1.2,MacIntel,60,9,0,0.434,9,1,0.586,0,9,9,17,1,Stimuli/testStimuliCube/6u_s_15_s.png,Stimuli/testStimuliCube/6u_d_15_s.png,1,1,,,,,,,,,s,3D
,,,,,,,20,male ,B,2020-05-12_17h24.53.586,Remembering_Displays,2020.1.2,MacIntel,60,9,1,0.561,9,1,0.992,0,10,10,12,1,Stimuli/testStimuliCube/6u_s_13_s.png,Stimuli/testStimuliCube/6u_s_13_s.png,0,9,,,,,,,,,s,3D
,,,,,,,20,male ,B,2020-05-12_17h24.53.586,Remembering_Displays,2020.1.2,MacIntel,60,1,1,0.759,1,1,1.607,0,11,11,11,1,Stimuli/testStimuliCube/6u_s_18.png,Stimuli/testStimuliCube/6u_d_18.png,1,1,,,,,,,,,c,3D
,,,,,,,20,male ,B,2020-05-12_17h24.53.586,Remembering_Displays,2020.1.2,MacIntel,60,1,0,0.759,9,0,1.009,0,12,12,20,1,Stimuli/testStimuliCube/6u_s_17_s.png,Stimuli/testStimuliCube/6u_s_17_s.png,0,9,,,,,,,,,s,3D
,,,,,,,20,male ,B,2020-05-12_17h24.53.586,Remembering_Displays,2020.1.2,MacIntel,60,1,1,0.88,9,0,0.774,0,13,13,1,1,Stimuli/testStimuliCube/6u_s_13.png,Stimuli/testStimuliCube/6u_d_13.png,1,1,,,,,,,,,c,3D
,,,,,,,20,male ,B,2020-05-12_17h24.53.586,Remembering_Displays,2020.1.2,MacIntel,60,1,1,0.724,1,1,0.327,0,14,14,15,1,Stimuli/testStimuliCube/6u_s_14_s.png,Stimuli/testStimuliCube/6u_d_14_s.png,1,1,,,,,,,,,s,3D
,,,,,,,20,male ,B,2020-05-12_17h24.53.586,Remembering_Displays,2020.1.2,MacIntel,60,9,1,0.497,1,1,0.742,0,15,15,22,1,Stimuli/testStimuliCube/6u_s_18_s.png,Stimuli/testStimuliCube/6u_s_18_s.png,0,9,,,,,,,,,s,3D
,,,,,,,20,male ,B,2020-05-12_17h24.53.586,Remembering_Displays,2020.1.2,MacIntel,60,9,0,0.613,9,0,1.791,0,16,16,23,1,Stimuli/testStimuliCube/6u_s_18_s.png,Stimuli/testStimuliCube/6u_d_18_s.png,1,1,,,,,,,,,s,3D
,,,,,,,20,male ,B,2020-05-12_17h24.53.586,Remembering_Displays,2020.1.2,MacIntel,60,1,1,0.605,9,0,0.9,0,17,17,3,1,Stimuli/testStimuliCube/6u_s_14.png,Stimuli/testStimuliCube/6u_d_14.png,1,1,,,,,,,,,c,3D
,,,,,,,20,male ,B,2020-05-12_17h24.53.586,Remembering_Displays,2020.1.2,MacIntel,60,9,1,0.69,9,1,0.291,0,18,18,16,1,Stimuli/testStimuliCube/6u_s_15_s.png,Stimuli/testStimuliCube/6u_s_15_s.png,0,9,,,,,,,,,s,3D
,,,,,,,20,male ,B,2020-05-12_17h24.53.586,Remembering_Displays,2020.1.2,MacIntel,60,9,1,0.965,1,1,0.534,0,19,19,8,1,Stimuli/testStimuliCube/6u_s_17.png,Stimuli/testStimuliCube/6u_s_17.png,0,9,,,,,,,,,c,3D
,,,,,,,20,male ,B,2020-05-12_17h24.53.586,Remembering_Displays,2020.1.2,MacIntel,60,9,1,0.486,9,1,0.425,0,20,20,6,1,Stimuli/testStimuliCube/6u_s_16.png,Stimuli/testStimuliCube/6u_s_16.png,0,9,,,,,,,,,c,3D
,,,,,,,20,male ,B,2020-05-12_17h24.53.586,Remembering_Displays,2020.1.2,MacIntel,60,9,1,0.751,9,1,3.619,0,21,21,0,1,Stimuli/testStimuliCube/6u_s_13.png,Stimuli/testStimuliCube/6u_s_13.png,0,9,,,,,,,,,c,3D
,,,,,,,20,male ,B,2020-05-12_17h24.53.586,Remembering_Displays,2020.1.2,MacIntel,60,9,0,0.978,9,1,0.691,0,22,22,19,1,Stimuli/testStimuliCube/6u_s_16_s.png,Stimuli/testStimuliCube/6u_d_16_s.png,1,1,,,,,,,,,s,3D
,,,,,,,20,male ,B,2020-05-12_17h24.53.586,Remembering_Displays,2020.1.2,MacIntel,60,9,1,0.776,9,1,0.539,0,23,23,14,1,Stimuli/testStimuliCube/6u_s_14_s.png,Stimuli/testStimuliCube/6u_s_14_s.png,0,9,,,,,,,,,s,3D
,,,,,,,20,male ,B,2020-05-12_17h24.53.586,Remembering_Displays,2020.1.2,MacIntel,60,,,,,,,,,,,,,,,,0,6,6,6,1,Stimuli/trialListCubes3.xlsx,Instructions/instr_19.png,Progress: 120 of 192 trials completed,,
,,,,,,,20,male ,B,2020-05-12_17h24.53.586,Remembering_Displays,2020.1.2,MacIntel,60,9,1,0.992,9,0,0.779,0,0,0,8,1,Stimuli/testStimuliSquare/6u_s_11_2D.png,Stimuli/testStimuliSquare/6u_s_11_2D.png,0,9,,,,,,,,,c,2D
,,,,,,,20,male ,B,2020-05-12_17h24.53.586,Remembering_Displays,2020.1.2,MacIntel,60,1,0,0.611,1,1,0.793,0,1,1,18,1,Stimuli/testStimuliSquare/6u_s_10_s_2D.png,Stimuli/testStimuliSquare/6u_s_10_s_2D.png,0,9,,,,,,,,,s,2D
,,,,,,,20,male ,B,2020-05-12_17h24.53.586,Remembering_Displays,2020.1.2,MacIntel,60,9,0,0.741,9,1,0.66,0,2,2,9,1,Stimuli/testStimuliSquare/6u_s_11_2D.png,Stimuli/testStimuliSquare/6u_d_11_2D.png,1,1,,,,,,,,,c,2D
,,,,,,,20,male ,B,2020-05-12_17h24.53.586,Remembering_Displays,2020.1.2,MacIntel,60,9,0,0.73,1,1,1.041,0,3,3,23,1,Stimuli/testStimuliSquare/6u_s_12_s_2D.png,Stimuli/testStimuliSquare/6u_d_12_s_2D.png,1,1,,,,,,,,,s,2D
,,,,,,,20,male ,B,2020-05-12_17h24.53.586,Remembering_Displays,2020.1.2,MacIntel,60,9,1,0.496,9,1,0.607,0,4,4,2,1,Stimuli/testStimuliSquare/6u_s_8_2D.png,Stimuli/testStimuliSquare/6u_s_8_2D.png,0,9,,,,,,,,,c,2D
,,,,,,,20,male ,B,2020-05-12_17h24.53.586,Remembering_Displays,2020.1.2,MacIntel,60,9,1,0.722,9,1,0.709,0,5,5,0,1,Stimuli/testStimuliSquare/6u_s_7_2D.png,Stimuli/testStimuliSquare/6u_s_7_2D.png,0,9,,,,,,,,,c,2D
,,,,,,,20,male ,B,2020-05-12_17h24.53.586,Remembering_Displays,2020.1.2,MacIntel,60,9,0,0.62,1,1,0.928,0,6,6,5,1,Stimuli/testStimuliSquare/6u_s_9_2D.png,Stimuli/testStimuliSquare/6u_d_9_2D.png,1,1,,,,,,,,,c,2D
,,,,,,,20,male ,B,2020-05-12_17h24.53.586,Remembering_Displays,2020.1.2,MacIntel,60,9,0,0.427,9,0,0.636,0,7,7,3,1,Stimuli/testStimuliSquare/6u_s_8_2D.png,Stimuli/testStimuliSquare/6u_d_8_2D.png,1,1,,,,,,,,,c,2D
,,,,,,,20,male ,B,2020-05-12_17h24.53.586,Remembering_Displays,2020.1.2,MacIntel,60,9,1,0.553,9,1,0.626,0,8,8,4,1,Stimuli/testStimuliSquare/6u_s_9_2D.png,Stimuli/testStimuliSquare/6u_s_9_2D.png,0,9,,,,,,,,,c,2D
,,,,,,,20,male ,B,2020-05-12_17h24.53.586,Remembering_Displays,2020.1.2,MacIntel,60,1,1,0.828,9,1,0.642,0,9,9,21,1,Stimuli/testStimuliSquare/6u_s_11_s_2D.png,Stimuli/testStimuliSquare/6u_d_11_s_2D.png,1,1,,,,,,,,,s,2D
,,,,,,,20,male ,B,2020-05-12_17h24.53.586,Remembering_Displays,2020.1.2,MacIntel,60,1,1,0.919,9,1,2.22,0,10,10,15,1,Stimuli/testStimuliSquare/6u_s_8_s_2D.png,Stimuli/testStimuliSquare/6u_d_8_s_2D.png,1,1,,,,,,,,,s,2D
,,,,,,,20,male ,B,2020-05-12_17h24.53.586,Remembering_Displays,2020.1.2,MacIntel,60,9,1,0.69,1,1,0.875,0,11,11,12,1,Stimuli/testStimuliSquare/6u_s_7_s_2D.png,Stimuli/testStimuliSquare/6u_s_7_s_2D.png,0,9,,,,,,,,,s,2D
,,,,,,,20,male ,B,2020-05-12_17h24.53.586,Remembering_Displays,2020.1.2,MacIntel,60,1,0,0.84,9,1,0.817,0,12,12,22,1,Stimuli/testStimuliSquare/6u_s_12_s_2D.png,Stimuli/testStimuliSquare/6u_s_12_s_2D.png,0,9,,,,,,,,,s,2D
,,,,,,,20,male ,B,2020-05-12_17h24.53.586,Remembering_Displays,2020.1.2,MacIntel,60,1,1,0.865,9,1,0.416,0,13,13,11,1,Stimuli/testStimuliSquare/6u_s_12_2D.png,Stimuli/testStimuliSquare/6u_d_12_2D.png,1,1,,,,,,,,,c,2D
,,,,,,,20,male ,B,2020-05-12_17h24.53.586,Remembering_Displays,2020.1.2,MacIntel,60,9,1,0.38,1,0,0.984,0,14,14,10,1,Stimuli/testStimuliSquare/6u_s_12_2D.png,Stimuli/testStimuliSquare/6u_s_12_2D.png,0,9,,,,,,,,,c,2D
,,,,,,,20,male ,B,2020-05-12_17h24.53.586,Remembering_Displays,2020.1.2,MacIntel,60,9,1,0.442,9,1,0.438,0,15,15,16,1,Stimuli/testStimuliSquare/6u_s_9_s_2D.png,Stimuli/testStimuliSquare/6u_s_9_s_2D.png,0,9,,,,,,,,,s,2D
,,,,,,,20,male ,B,2020-05-12_17h24.53.586,Remembering_Displays,2020.1.2,MacIntel,60,1,1,0.741,1,1,0.693,0,16,16,13,1,Stimuli/testStimuliSquare/6u_s_7_s_2D.png,Stimuli/testStimuliSquare/6u_d_7_s_2D.png,1,1,,,,,,,,,s,2D
,,,,,,,20,male ,B,2020-05-12_17h24.53.586,Remembering_Displays,2020.1.2,MacIntel,60,1,1,0.548,9,0,0.672,0,17,17,19,1,Stimuli/testStimuliSquare/6u_s_10_s_2D.png,Stimuli/testStimuliSquare/6u_d_10_s_2D.png,1,1,,,,,,,,,s,2D
,,,,,,,20,male ,B,2020-05-12_17h24.53.586,Remembering_Displays,2020.1.2,MacIntel,60,1,0,0.969,9,1,0.325,0,18,18,6,1,Stimuli/testStimuliSquare/6u_s_10_2D.png,Stimuli/testStimuliSquare/6u_s_10_2D.png,0,9,,,,,,,,,c,2D
,,,,,,,20,male ,B,2020-05-12_17h24.53.586,Remembering_Displays,2020.1.2,MacIntel,60,9,1,0.81,9,1,0.192,0,19,19,14,1,Stimuli/testStimuliSquare/6u_s_8_s_2D.png,Stimuli/testStimuliSquare/6u_s_8_s_2D.png,0,9,,,,,,,,,s,2D
,,,,,,,20,male ,B,2020-05-12_17h24.53.586,Remembering_Displays,2020.1.2,MacIntel,60,9,0,0.591,9,1,0.842,0,20,20,17,1,Stimuli/testStimuliSquare/6u_s_9_s_2D.png,Stimuli/testStimuliSquare/6u_d_9_s_2D.png,1,1,,,,,,,,,s,2D
,,,,,,,20,male ,B,2020-05-12_17h24.53.586,Remembering_Displays,2020.1.2,MacIntel,60,1,1,0.452,9,0,0.556,0,21,21,7,1,Stimuli/testStimuliSquare/6u_s_10_2D.png,Stimuli/testStimuliSquare/6u_d_10_2D.png,1,1,,,,,,,,,c,2D
,,,,,,,20,male ,B,2020-05-12_17h24.53.586,Remembering_Displays,2020.1.2,MacIntel,60,9,1,0.542,9,0,0.518,0,22,22,20,1,Stimuli/testStimuliSquare/6u_s_11_s_2D.png,Stimuli/testStimuliSquare/6u_s_11_s_2D.png,0,9,,,,,,,,,s,2D
,,,,,,,20,male ,B,2020-05-12_17h24.53.586,Remembering_Displays,2020.1.2,MacIntel,60,1,1,0.637,1,1,0.773,0,23,23,1,1,Stimuli/testStimuliSquare/6u_s_7_2D.png,Stimuli/testStimuliSquare/6u_d_7_2D.png,1,1,,,,,,,,,c,2D
,,,,,,,20,male ,B,2020-05-12_17h24.53.586,Remembering_Displays,2020.1.2,MacIntel,60,,,,,,,,,,,,,,,,0,7,7,7,1,Stimuli/trialListSquares2.xlsx,Instructions/instr_18.png,Progress: 144 of 192 trials completed,,
,,,,,,,20,male ,B,2020-05-12_17h24.53.586,Remembering_Displays,2020.1.2,MacIntel,60,9,0,0.509,9,1,0.65,0,0,0,21,1,Stimuli/testStimuliCube/6u_s_23_s.png,Stimuli/testStimuliCube/6u_d_23_s.png,1,1,,,,,,,,,s,3D
,,,,,,,20,male ,B,2020-05-12_17h24.53.586,Remembering_Displays,2020.1.2,MacIntel,60,1,1,0.631,9,1,0.501,0,1,1,23,1,Stimuli/testStimuliCube/6u_s_24_s.png,Stimuli/testStimuliCube/6u_d_24_s.png,1,1,,,,,,,,,s,3D
,,,,,,,20,male ,B,2020-05-12_17h24.53.586,Remembering_Displays,2020.1.2,MacIntel,60,9,1,0.696,9,0,1.176,0,2,2,16,1,Stimuli/testStimuliCube/6u_s_21_s.png,Stimuli/testStimuliCube/6u_s_21_s.png,0,9,,,,,,,,,s,3D
,,,,,,,20,male ,B,2020-05-12_17h24.53.586,Remembering_Displays,2020.1.2,MacIntel,60,1,1,0.604,9,0,0.39,0,3,3,11,1,Stimuli/testStimuliCube/6u_s_24.png,Stimuli/testStimuliCube/6u_d_24.png,1,1,,,,,,,,,c,3D
,,,,,,,20,male ,B,2020-05-12_17h24.53.586,Remembering_Displays,2020.1.2,MacIntel,60,1,1,0.556,1,1,0.823,0,4,4,15,1,Stimuli/testStimuliCube/6u_s_20_s.png,Stimuli/testStimuliCube/6u_d_20_s.png,1,1,,,,,,,,,s,3D
,,,,,,,20,male ,B,2020-05-12_17h24.53.586,Remembering_Displays,2020.1.2,MacIntel,60,,0,,9,1,0.442,0,5,5,4,1,Stimuli/testStimuliCube/6u_s_21.png,Stimuli/testStimuliCube/6u_s_21.png,0,9,,,,,,,,,c,3D
,,,,,,,20,male ,B,2020-05-12_17h24.53.586,Remembering_Displays,2020.1.2,MacIntel,60,9,0,0.675,9,1,0.535,0,6,6,5,1,Stimuli/testStimuliCube/6u_s_21.png,Stimuli/testStimuliCube/6u_d_21.png,1,1,,,,,,,,,c,3D
,,,,,,,20,male ,B,2020-05-12_17h24.53.586,Remembering_Displays,2020.1.2,MacIntel,60,1,1,0.644,9,1,0.752,0,7,7,19,1,Stimuli/testStimuliCube/6u_s_22_s.png,Stimuli/testStimuliCube/6u_d_22_s.png,1,1,,,,,,,,,s,3D
,,,,,,,20,male ,B,2020-05-12_17h24.53.586,Remembering_Displays,2020.1.2,MacIntel,60,1,1,0.723,9,1,0.451,0,8,8,7,1,Stimuli/testStimuliCube/6u_s_22.png,Stimuli/testStimuliCube/6u_d_22.png,1,1,,,,,,,,,c,3D
,,,,,,,20,male ,B,2020-05-12_17h24.53.586,Remembering_Displays,2020.1.2,MacIntel,60,1,1,0.948,1,1,1.034,0,9,9,13,1,Stimuli/testStimuliCube/6u_s_19_s.png,Stimuli/testStimuliCube/6u_d_19_s.png,1,1,,,,,,,,,s,3D
,,,,,,,20,male ,B,2020-05-12_17h24.53.586,Remembering_Displays,2020.1.2,MacIntel,60,9,1,1.142,9,1,0.459,0,10,10,20,1,Stimuli/testStimuliCube/6u_s_23_s.png,Stimuli/testStimuliCube/6u_s_23_s.png,0,9,,,,,,,,,s,3D
,,,,,,,20,male ,B,2020-05-12_17h24.53.586,Remembering_Displays,2020.1.2,MacIntel,60,1,0,0.722,9,1,0.408,0,11,11,6,1,Stimuli/testStimuliCube/6u_s_22.png,Stimuli/testStimuliCube/6u_s_22.png,0,9,,,,,,,,,c,3D
,,,,,,,20,male ,B,2020-05-12_17h24.53.586,Remembering_Displays,2020.1.2,MacIntel,60,9,1,0.507,1,1,4.403,0,12,12,8,1,Stimuli/testStimuliCube/6u_s_23.png,Stimuli/testStimuliCube/6u_s_23.png,0,9,,,,,,,,,c,3D
,,,,,,,20,male ,B,2020-05-12_17h24.53.586,Remembering_Displays,2020.1.2,MacIntel,60,9,1,0.525,9,1,0.425,0,13,13,0,1,Stimuli/testStimuliCube/6u_s_19.png,Stimuli/testStimuliCube/6u_s_19.png,0,9,,,,,,,,,c,3D
,,,,,,,20,male ,B,2020-05-12_17h24.53.586,Remembering_Displays,2020.1.2,MacIntel,60,9,1,0.62,9,1,0.439,0,14,14,18,1,Stimuli/testStimuliCube/6u_s_22_s.png,Stimuli/testStimuliCube/6u_s_22_s.png,0,9,,,,,,,,,s,3D
,,,,,,,20,male ,B,2020-05-12_17h24.53.586,Remembering_Displays,2020.1.2,MacIntel,60,9,0,0.527,9,1,0.806,0,15,15,9,1,Stimuli/testStimuliCube/6u_s_23.png,Stimuli/testStimuliCube/6u_d_23.png,1,1,,,,,,,,,c,3D
,,,,,,,20,male ,B,2020-05-12_17h24.53.586,Remembering_Displays,2020.1.2,MacIntel,60,9,1,0.521,9,1,0.444,0,16,16,10,1,Stimuli/testStimuliCube/6u_s_24.png,Stimuli/testStimuliCube/6u_s_24.png,0,9,,,,,,,,,c,3D
,,,,,,,20,male ,B,2020-05-12_17h24.53.586,Remembering_Displays,2020.1.2,MacIntel,60,9,1,0.46,9,0,0.675,0,17,17,14,1,Stimuli/testStimuliCube/6u_s_20_s.png,Stimuli/testStimuliCube/6u_s_20_s.png,0,9,,,,,,,,,s,3D
,,,,,,,20,male ,B,2020-05-12_17h24.53.586,Remembering_Displays,2020.1.2,MacIntel,60,9,1,0.543,9,0,0.425,0,18,18,2,1,Stimuli/testStimuliCube/6u_s_20.png,Stimuli/testStimuliCube/6u_s_20.png,0,9,,,,,,,,,c,3D
,,,,,,,20,male ,B,2020-05-12_17h24.53.586,Remembering_Displays,2020.1.2,MacIntel,60,1,1,0.653,9,0,0.407,0,19,19,3,1,Stimuli/testStimuliCube/6u_s_20.png,Stimuli/testStimuliCube/6u_d_20.png,1,1,,,,,,,,,c,3D
,,,,,,,20,male ,B,2020-05-12_17h24.53.586,Remembering_Displays,2020.1.2,MacIntel,60,9,1,0.543,9,1,0.357,0,20,20,22,1,Stimuli/testStimuliCube/6u_s_24_s.png,Stimuli/testStimuliCube/6u_s_24_s.png,0,9,,,,,,,,,s,3D
,,,,,,,20,male ,B,2020-05-12_17h24.53.586,Remembering_Displays,2020.1.2,MacIntel,60,9,1,0.558,9,0,0.925,0,21,21,12,1,Stimuli/testStimuliCube/6u_s_19_s.png,Stimuli/testStimuliCube/6u_s_19_s.png,0,9,,,,,,,,,s,3D
,,,,,,,20,male ,B,2020-05-12_17h24.53.586,Remembering_Displays,2020.1.2,MacIntel,60,9,0,0.448,1,1,0.805,0,22,22,17,1,Stimuli/testStimuliCube/6u_s_21_s.png,Stimuli/testStimuliCube/6u_d_21_s.png,1,1,,,,,,,,,s,3D
,,,,,,,20,male ,B,2020-05-12_17h24.53.586,Remembering_Displays,2020.1.2,MacIntel,60,1,1,0.564,1,0,0.319,0,23,23,1,1,Stimuli/testStimuliCube/6u_s_19.png,Stimuli/testStimuliCube/6u_d_19.png,1,1,,,,,,,,,c,3D
,,,,,,,20,male ,B,2020-05-12_17h24.53.586,Remembering_Displays,2020.1.2,MacIntel,60,,,,,,,,,,,,,,,,0,8,8,8,1,Stimuli/trialListCubes4.xlsx,Instructions/instr_19.png,Progress: 168 of 192 trials completed,,
,,,,,,,20,male ,B,2020-05-12_17h24.53.586,Remembering_Displays,2020.1.2,MacIntel,60,1,1,0.973,9,0,0.474,0,0,0,19,1,Stimuli/testStimuliSquare/6u_s_4_s_2D.png,Stimuli/testStimuliSquare/6u_d_4_s_2D.png,1,1,,,,,,,,,s,2D
,,,,,,,20,male ,B,2020-05-12_17h24.53.586,Remembering_Displays,2020.1.2,MacIntel,60,9,1,0.702,9,1,0.217,0,1,1,0,1,Stimuli/testStimuliSquare/6u_s_1_2D.png,Stimuli/testStimuliSquare/6u_s_1_2D.png,0,9,,,,,,,,,c,2D
,,,,,,,20,male ,B,2020-05-12_17h24.53.586,Remembering_Displays,2020.1.2,MacIntel,60,9,0,0.436,9,0,0.642,0,2,2,3,1,Stimuli/testStimuliSquare/6u_s_2_2D.png,Stimuli/testStimuliSquare/6u_d_2_2D.png,1,1,,,,,,,,,c,2D
,,,,,,,20,male ,B,2020-05-12_17h24.53.586,Remembering_Displays,2020.1.2,MacIntel,60,9,0,0.769,1,1,0.953,0,3,3,5,1,Stimuli/testStimuliSquare/6u_s_3_2D.png,Stimuli/testStimuliSquare/6u_d_3_2D.png,1,1,,,,,,,,,c,2D
,,,,,,,20,male ,B,2020-05-12_17h24.53.586,Remembering_Displays,2020.1.2,MacIntel,60,1,1,0.941,1,1,1.291,0,4,4,7,1,Stimuli/testStimuliSquare/6u_s_4_2D.png,Stimuli/testStimuliSquare/6u_d_4_2D.png,1,1,,,,,,,,,c,2D
,,,,,,,20,male ,B,2020-05-12_17h24.53.586,Remembering_Displays,2020.1.2,MacIntel,60,9,1,0.877,1,1,0.777,0,5,5,14,1,Stimuli/testStimuliSquare/6u_s_2_s_2D.png,Stimuli/testStimuliSquare/6u_s_2_s_2D.png,0,9,,,,,,,,,s,2D
,,,,,,,20,male ,B,2020-05-12_17h24.53.586,Remembering_Displays,2020.1.2,MacIntel,60,1,0,0.89,1,1,0.774,0,6,6,16,1,Stimuli/testStimuliSquare/6u_s_3_s_2D.png,Stimuli/testStimuliSquare/6u_s_3_s_2D.png,0,9,,,,,,,,,s,2D
,,,,,,,20,male ,B,2020-05-12_17h24.53.586,Remembering_Displays,2020.1.2,MacIntel,60,1,1,0.662,9,1,0.61,0,7,7,23,1,Stimuli/testStimuliSquare/6u_s_6_s_2D.png,Stimuli/testStimuliSquare/6u_d_6_s_2D.png,1,1,,,,,,,,,s,2D
,,,,,,,20,male ,B,2020-05-12_17h24.53.586,Remembering_Displays,2020.1.2,MacIntel,60,1,1,0.668,9,1,1.009,0,8,8,13,1,Stimuli/testStimuliSquare/6u_s_1_s_2D.png,Stimuli/testStimuliSquare/6u_d_1_s_2D.png,1,1,,,,,,,,,s,2D
,,,,,,,20,male ,B,2020-05-12_17h24.53.586,Remembering_Displays,2020.1.2,MacIntel,60,9,1,0.521,1,0,0.94,0,9,9,2,1,Stimuli/testStimuliSquare/6u_s_2_2D.png,Stimuli/testStimuliSquare/6u_s_2_2D.png,0,9,,,,,,,,,c,2D
,,,,,,,20,male ,B,2020-05-12_17h24.53.586,Remembering_Displays,2020.1.2,MacIntel,60,9,0,0.745,9,0,0.69,0,10,10,17,1,Stimuli/testStimuliSquare/6u_s_3_s_2D.png,Stimuli/testStimuliSquare/6u_d_3_s_2D.png,1,1,,,,,,,,,s,2D
,,,,,,,20,male ,B,2020-05-12_17h24.53.586,Remembering_Displays,2020.1.2,MacIntel,60,9,1,0.492,1,1,0.604,0,11,11,8,1,Stimuli/testStimuliSquare/6u_s_5_2D.png,Stimuli/testStimuliSquare/6u_s_5_2D.png,0,9,,,,,,,,,c,2D
,,,,,,,20,male ,B,2020-05-12_17h24.53.586,Remembering_Displays,2020.1.2,MacIntel,60,9,1,0.506,9,1,0.426,0,12,12,18,1,Stimuli/testStimuliSquare/6u_s_4_s_2D.png,Stimuli/testStimuliSquare/6u_s_4_s_2D.png,0,9,,,,,,,,,s,2D
,,,,,,,20,male ,B,2020-05-12_17h24.53.586,Remembering_Displays,2020.1.2,MacIntel,60,9,1,0.421,1,1,0.742,0,13,13,6,1,Stimuli/testStimuliSquare/6u_s_4_2D.png,Stimuli/testStimuliSquare/6u_s_4_2D.png,0,9,,,,,,,,,c,2D
,,,,,,,20,male ,B,2020-05-12_17h24.53.586,Remembering_Displays,2020.1.2,MacIntel,60,1,1,0.644,9,0,0.907,0,14,14,11,1,Stimuli/testStimuliSquare/6u_s_6_2D.png,Stimuli/testStimuliSquare/6u_d_6_2D.png,1,1,,,,,,,,,c,2D
,,,,,,,20,male ,B,2020-05-12_17h24.53.586,Remembering_Displays,2020.1.2,MacIntel,60,9,1,0.441,9,1,0.905,0,15,15,20,1,Stimuli/testStimuliSquare/6u_s_5_s_2D.png,Stimuli/testStimuliSquare/6u_s_5_s_2D.png,0,9,,,,,,,,,s,2D
,,,,,,,20,male ,B,2020-05-12_17h24.53.586,Remembering_Displays,2020.1.2,MacIntel,60,9,1,0.427,9,0,0.635,0,16,16,22,1,Stimuli/testStimuliSquare/6u_s_6_s_2D.png,Stimuli/testStimuliSquare/6u_s_6_s_2D.png,0,9,,,,,,,,,s,2D
,,,,,,,20,male ,B,2020-05-12_17h24.53.586,Remembering_Displays,2020.1.2,MacIntel,60,9,0,0.367,9,0,0.307,0,17,17,9,1,Stimuli/testStimuliSquare/6u_s_5_2D.png,Stimuli/testStimuliSquare/6u_d_5_2D.png,1,1,,,,,,,,,c,2D
,,,,,,,20,male ,B,2020-05-12_17h24.53.586,Remembering_Displays,2020.1.2,MacIntel,60,9,1,0.669,1,1,1.735,0,18,18,10,1,Stimuli/testStimuliSquare/6u_s_6_2D.png,Stimuli/testStimuliSquare/6u_s_6_2D.png,0,9,,,,,,,,,c,2D
,,,,,,,20,male ,B,2020-05-12_17h24.53.586,Remembering_Displays,2020.1.2,MacIntel,60,9,0,0.568,1,1,0.523,0,19,19,1,1,Stimuli/testStimuliSquare/6u_s_1_2D.png,Stimuli/testStimuliSquare/6u_d_1_2D.png,1,1,,,,,,,,,c,2D
,,,,,,,20,male ,B,2020-05-12_17h24.53.586,Remembering_Displays,2020.1.2,MacIntel,60,9,0,0.558,9,1,0.541,0,20,20,15,1,Stimuli/testStimuliSquare/6u_s_2_s_2D.png,Stimuli/testStimuliSquare/6u_d_2_s_2D.png,1,1,,,,,,,,,s,2D
,,,,,,,20,male ,B,2020-05-12_17h24.53.586,Remembering_Displays,2020.1.2,MacIntel,60,9,1,0.823,1,0,0.607,0,21,21,12,1,Stimuli/testStimuliSquare/6u_s_1_s_2D.png,Stimuli/testStimuliSquare/6u_s_1_s_2D.png,0,9,,,,,,,,,s,2D
,,,,,,,20,male ,B,2020-05-12_17h24.53.586,Remembering_Displays,2020.1.2,MacIntel,60,1,1,0.843,1,0,0.809,0,22,22,21,1,Stimuli/testStimuliSquare/6u_s_5_s_2D.png,Stimuli/testStimuliSquare/6u_d_5_s_2D.png,1,1,,,,,,,,,s,2D
,,,,,,,20,male ,B,2020-05-12_17h24.53.586,Remembering_Displays,2020.1.2,MacIntel,60,9,1,0.668,1,1,0.635,0,23,23,4,1,Stimuli/testStimuliSquare/6u_s_3_2D.png,Stimuli/testStimuliSquare/6u_s_3_2D.png,0,9,,,,,,,,,c,2D