instr_Loop.thisRepN,instr_Loop.thisTrialN,instr_Loop.thisN,instr_Loop.thisIndex,instr_Loop.ran,instructionImage,time,age,sex (female/male),order,date,expName,psychopyVersion,OS,frameRate,struc_judge_respond.keys,struc_judge_respond.corr,struc_judge_respond.rt,dual_respond.keys,dual_respond.corr,dual_respond.rt,trials.thisRepN,trials.thisTrialN,trials.thisN,trials.thisIndex,trials.ran,stim1,stim2,isAnyChange,corrAns,selectBlock.thisRepN,selectBlock.thisTrialN,selectBlock.thisN,selectBlock.thisIndex,selectBlock.ran,condsFile,condsImage,remaining,connected,dimensionality
0,0,0,0,1,Instructions/consent.png,3,19,female,A,2020-05-13_14h25.20.400,Remembering_Displays,2020.1.2,MacIntel,60,,,,,,,,,,,,,,,,,,,,,,,,,
0,1,1,1,1,Instructions/instr_1.png,5,19,female,A,2020-05-13_14h25.20.400,Remembering_Displays,2020.1.2,MacIntel,60,,,,,,,,,,,,,,,,,,,,,,,,,
0,2,2,2,1,Instructions/instr_2.png,3,19,female,A,2020-05-13_14h25.20.400,Remembering_Displays,2020.1.2,MacIntel,60,,,,,,,,,,,,,,,,,,,,,,,,,
0,3,3,3,1,Instructions/instr_3.png,5,19,female,A,2020-05-13_14h25.20.400,Remembering_Displays,2020.1.2,MacIntel,60,,,,,,,,,,,,,,,,,,,,,,,,,
0,4,4,4,1,Instructions/instr_4.png,1,19,female,A,2020-05-13_14h25.20.400,Remembering_Displays,2020.1.2,MacIntel,60,,,,,,,,,,,,,,,,,,,,,,,,,
0,5,5,5,1,Instructions/instr_5.png,1,19,female,A,2020-05-13_14h25.20.400,Remembering_Displays,2020.1.2,MacIntel,60,,,,,,,,,,,,,,,,,,,,,,,,,
0,6,6,6,1,Instructions/instr_6.png,1,19,female,A,2020-05-13_14h25.20.400,Remembering_Displays,2020.1.2,MacIntel,60,,,,,,,,,,,,,,,,,,,,,,,,,
0,7,7,7,1,Instructions/instr_7.png,1,19,female,A,2020-05-13_14h25.20.400,Remembering_Displays,2020.1.2,MacIntel,60,,,,,,,,,,,,,,,,,,,,,,,,,
0,8,8,8,1,Instructions/instr_8.png,3,19,female,A,2020-05-13_14h25.20.400,Remembering_Displays,2020.1.2,MacIntel,60,,,,,,,,,,,,,,,,,,,,,,,,,
0,9,9,9,1,Instructions/instr_9.png,3,19,female,A,2020-05-13_14h25.20.400,Remembering_Displays,2020.1.2,MacIntel,60,,,,,,,,,,,,,,,,,,,,,,,,,
0,10,10,10,1,Instructions/instr_10.png,3,19,female,A,2020-05-13_14h25.20.400,Remembering_Displays,2020.1.2,MacIntel,60,,,,,,,,,,,,,,,,,,,,,,,,,
0,11,11,11,1,Instructions/instr_11.png,3,19,female,A,2020-05-13_14h25.20.400,Remembering_Displays,2020.1.2,MacIntel,60,,,,,,,,,,,,,,,,,,,,,,,,,
0,12,12,12,1,Instructions/instr_12.png,3,19,female,A,2020-05-13_14h25.20.400,Remembering_Displays,2020.1.2,MacIntel,60,,,,,,,,,,,,,,,,,,,,,,,,,
0,13,13,13,1,Instructions/instr_13.png,3,19,female,A,2020-05-13_14h25.20.400,Remembering_Displays,2020.1.2,MacIntel,60,,,,,,,,,,,,,,,,,,,,,,,,,
0,14,14,14,1,Instructions/instr_14.png,3,19,female,A,2020-05-13_14h25.20.400,Remembering_Displays,2020.1.2,MacIntel,60,,,,,,,,,,,,,,,,,,,,,,,,,
0,15,15,15,1,Instructions/instr_15.png,3,19,female,A,2020-05-13_14h25.20.400,Remembering_Displays,2020.1.2,MacIntel,60,,,,,,,,,,,,,,,,,,,,,,,,,
0,16,16,16,1,Instructions/instr_16.png,5,19,female,A,2020-05-13_14h25.20.400,Remembering_Displays,2020.1.2,MacIntel,60,,,,,,,,,,,,,,,,,,,,,,,,,
,,,,,,,19,female,A,2020-05-13_14h25.20.400,Remembering_Displays,2020.1.2,MacIntel,60,1,0,0.755495,9,1,2.517335,0,0,0,2,1,Stimuli/practiceStimuliSquare/practice3_s.png,Stimuli/practiceStimuliSquare/practice3_s.png,0,9,,,,,,,,,,
,,,,,,,19,female,A,2020-05-13_14h25.20.400,Remembering_Displays,2020.1.2,MacIntel,60,9,1,1.170025,1,1,1.487515,0,1,1,0,1,Stimuli/practiceStimuliSquare/practice1_s.png,Stimuli/practiceStimuliSquare/practice1_s.png,0,9,,,,,,,,,,
,,,,,,,19,female,A,2020-05-13_14h25.20.400,Remembering_Displays,2020.1.2,MacIntel,60,1,1,1.071315,1,1,1.873585,0,2,2,6,1,Stimuli/practiceStimuliSquare/practice3_s.png,Stimuli/practiceStimuliSquare/practice3_d.png,1,1,,,,,,,,,,
,,,,,,,19,female,A,2020-05-13_14h25.20.400,Remembering_Displays,2020.1.2,MacIntel,60,1,1,1.082845,1,1,1.11735,0,3,3,1,1,Stimuli/practiceStimuliSquare/practice2_s.png,Stimuli/practiceStimuliSquare/practice2_d.png,1,1,,,,,,,,,,
,,,,,,,19,female,A,2020-05-13_14h25.20.400,Remembering_Displays,2020.1.2,MacIntel,60,1,1,0.827525,9,1,1.122105,0,4,4,3,1,Stimuli/practiceStimuliSquare/practice4_s.png,Stimuli/practiceStimuliSquare/practice4_d.png,1,1,,,,,,,,,,
,,,,,,,19,female,A,2020-05-13_14h25.20.400,Remembering_Displays,2020.1.2,MacIntel,60,1,1,0.682295,9,1,0.86825,0,5,5,4,1,Stimuli/practiceStimuliSquare/practice1_s.png,Stimuli/practiceStimuliSquare/practice1_d.png,1,1,,,,,,,,,,
,,,,,,,19,female,A,2020-05-13_14h25.20.400,Remembering_Displays,2020.1.2,MacIntel,60,9,1,0.57486,1,1,1.038495,0,6,6,7,1,Stimuli/practiceStimuliSquare/practice4_s.png,Stimuli/practiceStimuliSquare/practice4_s.png,0,9,,,,,,,,,,
,,,,,,,19,female,A,2020-05-13_14h25.20.400,Remembering_Displays,2020.1.2,MacIntel,60,9,1,0.722915,1,1,1.16496,0,7,7,5,1,Stimuli/practiceStimuliSquare/practice2_s.png,Stimuli/practiceStimuliSquare/practice2_s.png,0,9,,,,,,,,,,
,,,,,,,19,female,A,2020-05-13_14h25.20.400,Remembering_Displays,2020.1.2,MacIntel,60,,,,,,,,,,,,,,,,0,0,0,0,1,Stimuli/practiceListSquares.xlsx,Instructions/instr_practice_A.png,Practice trials completed,,
,,,,,,,19,female,A,2020-05-13_14h25.20.400,Remembering_Displays,2020.1.2,MacIntel,60,9,1,0.64079,9,1,1.701255,0,0,0,20,1,Stimuli/testStimuliSquare/6u_s_5_s_2D.png,Stimuli/testStimuliSquare/6u_s_5_s_2D.png,0,9,,,,,,,,,s,2D
,,,,,,,19,female,A,2020-05-13_14h25.20.400,Remembering_Displays,2020.1.2,MacIntel,60,1,1,0.62445,1,1,1.44753,0,1,1,3,1,Stimuli/testStimuliSquare/6u_s_2_2D.png,Stimuli/testStimuliSquare/6u_d_2_2D.png,1,1,,,,,,,,,c,2D
,,,,,,,19,female,A,2020-05-13_14h25.20.400,Remembering_Displays,2020.1.2,MacIntel,60,9,1,0.657055,9,1,1.200235,0,2,2,18,1,Stimuli/testStimuliSquare/6u_s_4_s_2D.png,Stimuli/testStimuliSquare/6u_s_4_s_2D.png,0,9,,,,,,,,,s,2D
,,,,,,,19,female,A,2020-05-13_14h25.20.400,Remembering_Displays,2020.1.2,MacIntel,60,9,1,0.752395,9,1,1.046585,0,3,3,6,1,Stimuli/testStimuliSquare/6u_s_4_2D.png,Stimuli/testStimuliSquare/6u_s_4_2D.png,0,9,,,,,,,,,c,2D
,,,,,,,19,female,A,2020-05-13_14h25.20.400,Remembering_Displays,2020.1.2,MacIntel,60,9,1,0.601835,9,1,0.95138,0,4,4,8,1,Stimuli/testStimuliSquare/6u_s_5_2D.png,Stimuli/testStimuliSquare/6u_s_5_2D.png,0,9,,,,,,,,,c,2D
,,,,,,,19,female,A,2020-05-13_14h25.20.400,Remembering_Displays,2020.1.2,MacIntel,60,9,0,0.54074,1,1,1.159015,0,5,5,9,1,Stimuli/testStimuliSquare/6u_s_5_2D.png,Stimuli/testStimuliSquare/6u_d_5_2D.png,1,1,,,,,,,,,c,2D
,,,,,,,19,female,A,2020-05-13_14h25.20.400,Remembering_Displays,2020.1.2,MacIntel,60,1,1,0.85465,9,1,0.8377,0,6,6,5,1,Stimuli/testStimuliSquare/6u_s_3_2D.png,Stimuli/testStimuliSquare/6u_d_3_2D.png,1,1,,,,,,,,,c,2D
,,,,,,,19,female,A,2020-05-13_14h25.20.400,Remembering_Displays,2020.1.2,MacIntel,60,1,1,0.632945,9,1,0.800445,0,7,7,15,1,Stimuli/testStimuliSquare/6u_s_2_s_2D.png,Stimuli/testStimuliSquare/6u_d_2_s_2D.png,1,1,,,,,,,,,s,2D
,,,,,,,19,female,A,2020-05-13_14h25.20.400,Remembering_Displays,2020.1.2,MacIntel,60,1,1,0.61195,9,1,0.934895,0,8,8,1,1,Stimuli/testStimuliSquare/6u_s_1_2D.png,Stimuli/testStimuliSquare/6u_d_1_2D.png,1,1,,,,,,,,,c,2D
,,,,,,,19,female,A,2020-05-13_14h25.20.400,Remembering_Displays,2020.1.2,MacIntel,60,1,1,0.58194,1,1,0.767495,0,9,9,13,1,Stimuli/testStimuliSquare/6u_s_1_s_2D.png,Stimuli/testStimuliSquare/6u_d_1_s_2D.png,1,1,,,,,,,,,s,2D
,,,,,,,19,female,A,2020-05-13_14h25.20.400,Remembering_Displays,2020.1.2,MacIntel,60,1,1,0.85704,1,1,1.93363,0,10,10,7,1,Stimuli/testStimuliSquare/6u_s_4_2D.png,Stimuli/testStimuliSquare/6u_d_4_2D.png,1,1,,,,,,,,,c,2D
,,,,,,,19,female,A,2020-05-13_14h25.20.400,Remembering_Displays,2020.1.2,MacIntel,60,9,1,0.794175,1,1,1.000185,0,11,11,10,1,Stimuli/testStimuliSquare/6u_s_6_2D.png,Stimuli/testStimuliSquare/6u_s_6_2D.png,0,9,,,,,,,,,c,2D
,,,,,,,19,female,A,2020-05-13_14h25.20.400,Remembering_Displays,2020.1.2,MacIntel,60,9,1,1.058135,1,1,0.84806,0,12,12,4,1,Stimuli/testStimuliSquare/6u_s_3_2D.png,Stimuli/testStimuliSquare/6u_s_3_2D.png,0,9,,,,,,,,,c,2D
,,,,,,,19,female,A,2020-05-13_14h25.20.400,Remembering_Displays,2020.1.2,MacIntel,60,9,1,0.671735,1,1,0.82071,0,13,13,16,1,Stimuli/testStimuliSquare/6u_s_3_s_2D.png,Stimuli/testStimuliSquare/6u_s_3_s_2D.png,0,9,,,,,,,,,s,2D
,,,,,,,19,female,A,2020-05-13_14h25.20.400,Remembering_Displays,2020.1.2,MacIntel,60,9,1,0.65246,9,1,1.136385,0,14,14,14,1,Stimuli/testStimuliSquare/6u_s_2_s_2D.png,Stimuli/testStimuliSquare/6u_s_2_s_2D.png,0,9,,,,,,,,,s,2D
,,,,,,,19,female,A,2020-05-13_14h25.20.400,Remembering_Displays,2020.1.2,MacIntel,60,9,0,0.86487,9,1,1.03765,0,15,15,21,1,Stimuli/testStimuliSquare/6u_s_5_s_2D.png,Stimuli/testStimuliSquare/6u_d_5_s_2D.png,1,1,,,,,,,,,s,2D
,,,,,,,19,female,A,2020-05-13_14h25.20.400,Remembering_Displays,2020.1.2,MacIntel,60,1,1,0.645025,9,1,1.269375,0,16,16,19,1,Stimuli/testStimuliSquare/6u_s_4_s_2D.png,Stimuli/testStimuliSquare/6u_d_4_s_2D.png,1,1,,,,,,,,,s,2D
,,,,,,,19,female,A,2020-05-13_14h25.20.400,Remembering_Displays,2020.1.2,MacIntel,60,1,1,0.62981,9,1,0.7671,0,17,17,17,1,Stimuli/testStimuliSquare/6u_s_3_s_2D.png,Stimuli/testStimuliSquare/6u_d_3_s_2D.png,1,1,,,,,,,,,s,2D
,,,,,,,19,female,A,2020-05-13_14h25.20.400,Remembering_Displays,2020.1.2,MacIntel,60,9,1,0.757455,1,1,0.75374,0,18,18,0,1,Stimuli/testStimuliSquare/6u_s_1_2D.png,Stimuli/testStimuliSquare/6u_s_1_2D.png,0,9,,,,,,,,,c,2D
,,,,,,,19,female,A,2020-05-13_14h25.20.400,Remembering_Displays,2020.1.2,MacIntel,60,9,1,0.67079,9,1,0.95011,0,19,19,2,1,Stimuli/testStimuliSquare/6u_s_2_2D.png,Stimuli/testStimuliSquare/6u_s_2_2D.png,0,9,,,,,,,,,c,2D
,,,,,,,19,female,A,2020-05-13_14h25.20.400,Remembering_Displays,2020.1.2,MacIntel,60,1,1,0.873725,1,1,0.90141,0,20,20,11,1,Stimuli/testStimuliSquare/6u_s_6_2D.png,Stimuli/testStimuliSquare/6u_d_6_2D.png,1,1,,,,,,,,,c,2D
,,,,,,,19,female,A,2020-05-13_14h25.20.400,Remembering_Displays,2020.1.2,MacIntel,60,1,0,0.59171,1,1,3.10056,0,21,21,12,1,Stimuli/testStimuliSquare/6u_s_1_s_2D.png,Stimuli/testStimuliSquare/6u_s_1_s_2D.png,0,9,,,,,,,,,s,2D
,,,,,,,19,female,A,2020-05-13_14h25.20.400,Remembering_Displays,2020.1.2,MacIntel,60,9,1,1.0082,1,1,0.967205,0,22,22,22,1,Stimuli/testStimuliSquare/6u_s_6_s_2D.png,Stimuli/testStimuliSquare/6u_s_6_s_2D.png,0,9,,,,,,,,,s,2D
,,,,,,,19,female,A,2020-05-13_14h25.20.400,Remembering_Displays,2020.1.2,MacIntel,60,1,1,1.36553,1,1,0.835715,0,23,23,23,1,Stimuli/testStimuliSquare/6u_s_6_s_2D.png,Stimuli/testStimuliSquare/6u_d_6_s_2D.png,1,1,,,,,,,,,s,2D
,,,,,,,19,female,A,2020-05-13_14h25.20.400,Remembering_Displays,2020.1.2,MacIntel,60,,,,,,,,,,,,,,,,0,1,1,1,1,Stimuli/trialListSquares1.xlsx,Instructions/instr_18.png,Progress: 24 of 192 trials completed,,
,,,,,,,19,female,A,2020-05-13_14h25.20.400,Remembering_Displays,2020.1.2,MacIntel,60,1,1,0.865415,1,1,1.24103,0,0,0,4,1,Stimuli/practiceStimuliCube/practice1_s.png,Stimuli/practiceStimuliCube/practice1_d.png,1,1,,,,,,,,,,
,,,,,,,19,female,A,2020-05-13_14h25.20.400,Remembering_Displays,2020.1.2,MacIntel,60,1,1,0.7171,1,1,1.31795,0,1,1,1,1,Stimuli/practiceStimuliCube/practice2_s.png,Stimuli/practiceStimuliCube/practice2_d.png,1,1,,,,,,,,,,
,,,,,,,19,female,A,2020-05-13_14h25.20.400,Remembering_Displays,2020.1.2,MacIntel,60,9,0,0.895345,1,1,0.8207,0,2,2,3,1,Stimuli/practiceStimuliCube/practice4_s.png,Stimuli/practiceStimuliCube/practice4_d.png,1,1,,,,,,,,,,
,,,,,,,19,female,A,2020-05-13_14h25.20.400,Remembering_Displays,2020.1.2,MacIntel,60,9,1,1.053,9,1,0.666215,0,3,3,7,1,Stimuli/practiceStimuliCube/practice4_s.png,Stimuli/practiceStimuliCube/practice4_s.png,0,9,,,,,,,,,,
,,,,,,,19,female,A,2020-05-13_14h25.20.400,Remembering_Displays,2020.1.2,MacIntel,60,9,1,0.873135,9,1,0.983315,0,4,4,5,1,Stimuli/practiceStimuliCube/practice2_s.png,Stimuli/practiceStimuliCube/practice2_s.png,0,9,,,,,,,,,,
,,,,,,,19,female,A,2020-05-13_14h25.20.400,Remembering_Displays,2020.1.2,MacIntel,60,9,1,0.92425,1,1,0.447765,0,5,5,0,1,Stimuli/practiceStimuliCube/practice1_s.png,Stimuli/practiceStimuliCube/practice1_s.png,0,9,,,,,,,,,,
,,,,,,,19,female,A,2020-05-13_14h25.20.400,Remembering_Displays,2020.1.2,MacIntel,60,1,1,0.882415,1,1,0.80115,0,6,6,6,1,Stimuli/practiceStimuliCube/practice3_s.png,Stimuli/practiceStimuliCube/practice3_d.png,1,1,,,,,,,,,,
,,,,,,,19,female,A,2020-05-13_14h25.20.400,Remembering_Displays,2020.1.2,MacIntel,60,9,1,0.685545,9,1,0.850515,0,7,7,2,1,Stimuli/practiceStimuliCube/practice3_s.png,Stimuli/practiceStimuliCube/practice3_s.png,0,9,,,,,,,,,,
,,,,,,,19,female,A,2020-05-13_14h25.20.400,Remembering_Displays,2020.1.2,MacIntel,60,,,,,,,,,,,,,,,,0,2,2,2,1,Stimuli/practiceListCubes.xlsx,Instructions/instr_practice_B.png,Practice trials completed,,
,,,,,,,19,female,A,2020-05-13_14h25.20.400,Remembering_Displays,2020.1.2,MacIntel,60,9,1,0.638935,9,1,0.68564,0,0,0,20,1,Stimuli/testStimuliCube/6u_s_23_s.png,Stimuli/testStimuliCube/6u_s_23_s.png,0,9,,,,,,,,,s,3D
,,,,,,,19,female,A,2020-05-13_14h25.20.400,Remembering_Displays,2020.1.2,MacIntel,60,1,1,0.814215,9,1,0.72115,0,1,1,3,1,Stimuli/testStimuliCube/6u_s_20.png,Stimuli/testStimuliCube/6u_d_20.png,1,1,,,,,,,,,c,3D
,,,,,,,19,female,A,2020-05-13_14h25.20.400,Remembering_Displays,2020.1.2,MacIntel,60,9,1,0.774155,9,1,0.617335,0,2,2,0,1,Stimuli/testStimuliCube/6u_s_19.png,Stimuli/testStimuliCube/6u_s_19.png,0,9,,,,,,,,,c,3D
,,,,,,,19,female,A,2020-05-13_14h25.20.400,Remembering_Displays,2020.1.2,MacIntel,60,1,1,0.634015,9,1,0.75456,0,3,3,17,1,Stimuli/testStimuliCube/6u_s_21_s.png,Stimuli/testStimuliCube/6u_d_21_s.png,1,1,,,,,,,,,s,3D
,,,,,,,19,female,A,2020-05-13_14h25.20.400,Remembering_Displays,2020.1.2,MacIntel,60,9,1,0.72567,1,1,0.783415,0,4,4,4,1,Stimuli/testStimuliCube/6u_s_21.png,Stimuli/testStimuliCube/6u_s_21.png,0,9,,,,,,,,,c,3D
,,,,,,,19,female,A,2020-05-13_14h25.20.400,Remembering_Displays,2020.1.2,MacIntel,60,9,1,0.82096,9,1,0.821405,0,5,5,16,1,Stimuli/testStimuliCube/6u_s_21_s.png,Stimuli/testStimuliCube/6u_s_21_s.png,0,9,,,,,,,,,s,3D
,,,,,,,19,female,A,2020-05-13_14h25.20.400,Remembering_Displays,2020.1.2,MacIntel,60,1,1,0.596815,1,1,0.55138,0,6,6,5,1,Stimuli/testStimuliCube/6u_s_21.png,Stimuli/testStimuliCube/6u_d_21.png,1,1,,,,,,,,,c,3D
,,,,,,,19,female,A,2020-05-13_14h25.20.400,Remembering_Displays,2020.1.2,MacIntel,60,9,1,0.706505,1,1,0.76668,0,7,7,12,1,Stimuli/testStimuliCube/6u_s_19_s.png,Stimuli/testStimuliCube/6u_s_19_s.png,0,9,,,,,,,,,s,3D
,,,,,,,19,female,A,2020-05-13_14h25.20.400,Remembering_Displays,2020.1.2,MacIntel,60,1,1,0.742645,9,1,0.984035,0,8,8,1,1,Stimuli/testStimuliCube/6u_s_19.png,Stimuli/testStimuliCube/6u_d_19.png,1,1,,,,,,,,,c,3D
,,,,,,,19,female,A,2020-05-13_14h25.20.400,Remembering_Displays,2020.1.2,MacIntel,60,9,1,0.807685,1,0,1.366995,0,9,9,8,1,Stimuli/testStimuliCube/6u_s_23.png,Stimuli/testStimuliCube/6u_s_23.png,0,9,,,,,,,,,c,3D
,,,,,,,19,female,A,2020-05-13_14h25.20.400,Remembering_Displays,2020.1.2,MacIntel,60,1,1,0.780635,1,1,1.167705,0,10,10,13,1,Stimuli/testStimuliCube/6u_s_19_s.png,Stimuli/testStimuliCube/6u_d_19_s.png,1,1,,,,,,,,,s,3D
,,,,,,,19,female,A,2020-05-13_14h25.20.400,Remembering_Displays,2020.1.2,MacIntel,60,1,1,0.667835,1,1,0.899965,0,11,11,21,1,Stimuli/testStimuliCube/6u_s_23_s.png,Stimuli/testStimuliCube/6u_d_23_s.png,1,1,,,,,,,,,s,3D
,,,,,,,19,female,A,2020-05-13_14h25.20.400,Remembering_Displays,2020.1.2,MacIntel,60,1,1,0.70115,1,1,1.137785,0,12,12,23,1,Stimuli/testStimuliCube/6u_s_24_s.png,Stimuli/testStimuliCube/6u_d_24_s.png,1,1,,,,,,,,,s,3D
,,,,,,,19,female,A,2020-05-13_14h25.20.400,Remembering_Displays,2020.1.2,MacIntel,60,9,0,1.174725,1,1,0.95031,0,13,13,11,1,Stimuli/testStimuliCube/6u_s_24.png,Stimuli/testStimuliCube/6u_d_24.png,1,1,,,,,,,,,c,3D
,,,,,,,19,female,A,2020-05-13_14h25.20.400,Remembering_Displays,2020.1.2,MacIntel,60,1,1,0.59865,9,1,0.786045,0,14,14,15,1,Stimuli/testStimuliCube/6u_s_20_s.png,Stimuli/testStimuliCube/6u_d_20_s.png,1,1,,,,,,,,,s,3D
,,,,,,,19,female,A,2020-05-13_14h25.20.400,Remembering_Displays,2020.1.2,MacIntel,60,1,1,0.643285,9,1,0.8667,0,15,15,19,1,Stimuli/testStimuliCube/6u_s_22_s.png,Stimuli/testStimuliCube/6u_d_22_s.png,1,1,,,,,,,,,s,3D
,,,,,,,19,female,A,2020-05-13_14h25.20.400,Remembering_Displays,2020.1.2,MacIntel,60,1,1,0.7301,1,1,0.61644,0,16,16,7,1,Stimuli/testStimuliCube/6u_s_22.png,Stimuli/testStimuliCube/6u_d_22.png,1,1,,,,,,,,,c,3D
,,,,,,,19,female,A,2020-05-13_14h25.20.400,Remembering_Displays,2020.1.2,MacIntel,60,9,1,0.85626,9,1,0.95109,0,17,17,2,1,Stimuli/testStimuliCube/6u_s_20.png,Stimuli/testStimuliCube/6u_s_20.png,0,9,,,,,,,,,c,3D
,,,,,,,19,female,A,2020-05-13_14h25.20.400,Remembering_Displays,2020.1.2,MacIntel,60,9,0,0.724945,9,1,1.084315,0,18,18,9,1,Stimuli/testStimuliCube/6u_s_23.png,Stimuli/testStimuliCube/6u_d_23.png,1,1,,,,,,,,,c,3D
,,,,,,,19,female,A,2020-05-13_14h25.20.400,Remembering_Displays,2020.1.2,MacIntel,60,9,1,0.82405,1,1,0.70147,0,19,19,10,1,Stimuli/testStimuliCube/6u_s_24.png,Stimuli/testStimuliCube/6u_s_24.png,0,9,,,,,,,,,c,3D
,,,,,,,19,female,A,2020-05-13_14h25.20.400,Remembering_Displays,2020.1.2,MacIntel,60,9,1,0.66161,1,1,0.700555,0,20,20,22,1,Stimuli/testStimuliCube/6u_s_24_s.png,Stimuli/testStimuliCube/6u_s_24_s.png,0,9,,,,,,,,,s,3D
,,,,,,,19,female,A,2020-05-13_14h25.20.400,Remembering_Displays,2020.1.2,MacIntel,60,9,1,0.94157,1,1,0.83792,0,21,21,6,1,Stimuli/testStimuliCube/6u_s_22.png,Stimuli/testStimuliCube/6u_s_22.png,0,9,,,,,,,,,c,3D
,,,,,,,19,female,A,2020-05-13_14h25.20.400,Remembering_Displays,2020.1.2,MacIntel,60,9,1,0.80941,9,1,0.78777,0,22,22,14,1,Stimuli/testStimuliCube/6u_s_20_s.png,Stimuli/testStimuliCube/6u_s_20_s.png,0,9,,,,,,,,,s,3D
,,,,,,,19,female,A,2020-05-13_14h25.20.400,Remembering_Displays,2020.1.2,MacIntel,60,9,1,0.903885,1,1,1.135045,0,23,23,18,1,Stimuli/testStimuliCube/6u_s_22_s.png,Stimuli/testStimuliCube/6u_s_22_s.png,0,9,,,,,,,,,s,3D
,,,,,,,19,female,A,2020-05-13_14h25.20.400,Remembering_Displays,2020.1.2,MacIntel,60,,,,,,,,,,,,,,,,0,3,3,3,1,Stimuli/trialListCubes4.xlsx,Instructions/instr_19.png,Progress: 48 of 192 trials completed,,
,,,,,,,19,female,A,2020-05-13_14h25.20.400,Remembering_Displays,2020.1.2,MacIntel,60,9,1,0.817935,1,0,1.73393,0,0,0,20,1,Stimuli/testStimuliSquare/6u_s_11_s_2D.png,Stimuli/testStimuliSquare/6u_s_11_s_2D.png,0,9,,,,,,,,,s,2D
,,,,,,,19,female,A,2020-05-13_14h25.20.400,Remembering_Displays,2020.1.2,MacIntel,60,9,1,0.639935,9,1,1.117545,0,1,1,8,1,Stimuli/testStimuliSquare/6u_s_11_2D.png,Stimuli/testStimuliSquare/6u_s_11_2D.png,0,9,,,,,,,,,c,2D
,,,,,,,19,female,A,2020-05-13_14h25.20.400,Remembering_Displays,2020.1.2,MacIntel,60,1,1,0.509375,9,1,0.866445,0,2,2,5,1,Stimuli/testStimuliSquare/6u_s_9_2D.png,Stimuli/testStimuliSquare/6u_d_9_2D.png,1,1,,,,,,,,,c,2D
,,,,,,,19,female,A,2020-05-13_14h25.20.400,Remembering_Displays,2020.1.2,MacIntel,60,1,1,0.814435,9,1,0.9044,0,3,3,23,1,Stimuli/testStimuliSquare/6u_s_12_s_2D.png,Stimuli/testStimuliSquare/6u_d_12_s_2D.png,1,1,,,,,,,,,s,2D
,,,,,,,19,female,A,2020-05-13_14h25.20.400,Remembering_Displays,2020.1.2,MacIntel,60,9,1,0.7354,9,1,1.084735,0,4,4,12,1,Stimuli/testStimuliSquare/6u_s_7_s_2D.png,Stimuli/testStimuliSquare/6u_s_7_s_2D.png,0,9,,,,,,,,,s,2D
,,,,,,,19,female,A,2020-05-13_14h25.20.400,Remembering_Displays,2020.1.2,MacIntel,60,9,1,0.752985,9,1,1.31472,0,5,5,6,1,Stimuli/testStimuliSquare/6u_s_10_2D.png,Stimuli/testStimuliSquare/6u_s_10_2D.png,0,9,,,,,,,,,c,2D
,,,,,,,19,female,A,2020-05-13_14h25.20.400,Remembering_Displays,2020.1.2,MacIntel,60,1,1,0.607785,1,1,1.36727,0,6,6,9,1,Stimuli/testStimuliSquare/6u_s_11_2D.png,Stimuli/testStimuliSquare/6u_d_11_2D.png,1,1,,,,,,,,,c,2D
,,,,,,,19,female,A,2020-05-13_14h25.20.400,Remembering_Displays,2020.1.2,MacIntel,60,9,1,0.888855,1,1,0.68887,0,7,7,2,1,Stimuli/testStimuliSquare/6u_s_8_2D.png,Stimuli/testStimuliSquare/6u_s_8_2D.png,0,9,,,,,,,,,c,2D
,,,,,,,19,female,A,2020-05-13_14h25.20.400,Remembering_Displays,2020.1.2,MacIntel,60,1,1,0.63316,9,1,0.95012,0,8,8,15,1,Stimuli/testStimuliSquare/6u_s_8_s_2D.png,Stimuli/testStimuliSquare/6u_d_8_s_2D.png,1,1,,,,,,,,,s,2D
,,,,,,,19,female,A,2020-05-13_14h25.20.400,Remembering_Displays,2020.1.2,MacIntel,60,9,1,0.80785,1,1,0.987195,0,9,9,0,1,Stimuli/testStimuliSquare/6u_s_7_2D.png,Stimuli/testStimuliSquare/6u_s_7_2D.png,0,9,,,,,,,,,c,2D
,,,,,,,19,female,A,2020-05-13_14h25.20.400,Remembering_Displays,2020.1.2,MacIntel,60,9,1,0.775195,1,1,0.96682,0,10,10,4,1,Stimuli/testStimuliSquare/6u_s_9_2D.png,Stimuli/testStimuliSquare/6u_s_9_2D.png,0,9,,,,,,,,,c,2D
,,,,,,,19,female,A,2020-05-13_14h25.20.400,Remembering_Displays,2020.1.2,MacIntel,60,9,0,1.013145,1,1,1.497225,0,11,11,21,1,Stimuli/testStimuliSquare/6u_s_11_s_2D.png,Stimuli/testStimuliSquare/6u_d_11_s_2D.png,1,1,,,,,,,,,s,2D
,,,,,,,19,female,A,2020-05-13_14h25.20.400,Remembering_Displays,2020.1.2,MacIntel,60,9,1,0.72493,9,1,0.66708,0,12,12,14,1,Stimuli/testStimuliSquare/6u_s_8_s_2D.png,Stimuli/testStimuliSquare/6u_s_8_s_2D.png,0,9,,,,,,,,,s,2D
,,,,,,,19,female,A,2020-05-13_14h25.20.400,Remembering_Displays,2020.1.2,MacIntel,60,1,1,0.76991,9,1,1.083175,0,13,13,11,1,Stimuli/testStimuliSquare/6u_s_12_2D.png,Stimuli/testStimuliSquare/6u_d_12_2D.png,1,1,,,,,,,,,c,2D
,,,,,,,19,female,A,2020-05-13_14h25.20.400,Remembering_Displays,2020.1.2,MacIntel,60,9,1,0.90991,1,1,0.600525,0,14,14,10,1,Stimuli/testStimuliSquare/6u_s_12_2D.png,Stimuli/testStimuliSquare/6u_s_12_2D.png,0,9,,,,,,,,,c,2D
,,,,,,,19,female,A,2020-05-13_14h25.20.400,Remembering_Displays,2020.1.2,MacIntel,60,9,1,0.642585,1,1,1.82164,0,15,15,16,1,Stimuli/testStimuliSquare/6u_s_9_s_2D.png,Stimuli/testStimuliSquare/6u_s_9_s_2D.png,0,9,,,,,,,,,s,2D
,,,,,,,19,female,A,2020-05-13_14h25.20.400,Remembering_Displays,2020.1.2,MacIntel,60,1,1,0.65005,1,1,1.186395,0,16,16,13,1,Stimuli/testStimuliSquare/6u_s_7_s_2D.png,Stimuli/testStimuliSquare/6u_d_7_s_2D.png,1,1,,,,,,,,,s,2D
,,,,,,,19,female,A,2020-05-13_14h25.20.400,Remembering_Displays,2020.1.2,MacIntel,60,9,1,0.788645,9,1,0.76364,0,17,17,18,1,Stimuli/testStimuliSquare/6u_s_10_s_2D.png,Stimuli/testStimuliSquare/6u_s_10_s_2D.png,0,9,,,,,,,,,s,2D
,,,,,,,19,female,A,2020-05-13_14h25.20.400,Remembering_Displays,2020.1.2,MacIntel,60,1,1,0.974255,9,1,0.75092,0,18,18,3,1,Stimuli/testStimuliSquare/6u_s_8_2D.png,Stimuli/testStimuliSquare/6u_d_8_2D.png,1,1,,,,,,,,,c,2D
,,,,,,,19,female,A,2020-05-13_14h25.20.400,Remembering_Displays,2020.1.2,MacIntel,60,1,1,0.650205,9,1,0.60459,0,19,19,19,1,Stimuli/testStimuliSquare/6u_s_10_s_2D.png,Stimuli/testStimuliSquare/6u_d_10_s_2D.png,1,1,,,,,,,,,s,2D
,,,,,,,19,female,A,2020-05-13_14h25.20.400,Remembering_Displays,2020.1.2,MacIntel,60,1,1,0.64078,9,1,0.732955,0,20,20,7,1,Stimuli/testStimuliSquare/6u_s_10_2D.png,Stimuli/testStimuliSquare/6u_d_10_2D.png,1,1,,,,,,,,,c,2D
,,,,,,,19,female,A,2020-05-13_14h25.20.400,Remembering_Displays,2020.1.2,MacIntel,60,1,1,0.636225,9,1,1.182735,0,21,21,1,1,Stimuli/testStimuliSquare/6u_s_7_2D.png,Stimuli/testStimuliSquare/6u_d_7_2D.png,1,1,,,,,,,,,c,2D
,,,,,,,19,female,A,2020-05-13_14h25.20.400,Remembering_Displays,2020.1.2,MacIntel,60,1,1,0.715355,9,1,0.971795,0,22,22,17,1,Stimuli/testStimuliSquare/6u_s_9_s_2D.png,Stimuli/testStimuliSquare/6u_d_9_s_2D.png,1,1,,,,,,,,,s,2D
,,,,,,,19,female,A,2020-05-13_14h25.20.400,Remembering_Displays,2020.1.2,MacIntel,60,1,0,0.72329,1,1,0.733835,0,23,23,22,1,Stimuli/testStimuliSquare/6u_s_12_s_2D.png,Stimuli/testStimuliSquare/6u_s_12_s_2D.png,0,9,,,,,,,,,s,2D
,,,,,,,19,female,A,2020-05-13_14h25.20.400,Remembering_Displays,2020.1.2,MacIntel,60,,,,,,,,,,,,,,,,0,4,4,4,1,Stimuli/trialListSquares2.xlsx,Instructions/instr_18.png,Progress: 72 of 192 trials completed,,
,,,,,,,19,female,A,2020-05-13_14h25.20.400,Remembering_Displays,2020.1.2,MacIntel,60,9,1,0.624425,9,1,0.566875,0,0,0,0,1,Stimuli/testStimuliCube/6u_s_13.png,Stimuli/testStimuliCube/6u_s_13.png,0,9,,,,,,,,,c,3D
,,,,,,,19,female,A,2020-05-13_14h25.20.400,Remembering_Displays,2020.1.2,MacIntel,60,,0,,1,1,1.790405,0,1,1,13,1,Stimuli/testStimuliCube/6u_s_13_s.png,Stimuli/testStimuliCube/6u_d_13_s.png,1,1,,,,,,,,,s,3D
,,,,,,,19,female,A,2020-05-13_14h25.20.400,Remembering_Displays,2020.1.2,MacIntel,60,9,1,0.608475,9,1,0.735855,0,2,2,16,1,Stimuli/testStimuliCube/6u_s_15_s.png,Stimuli/testStimuliCube/6u_s_15_s.png,0,9,,,,,,,,,s,3D
,,,,,,,19,female,A,2020-05-13_14h25.20.400,Remembering_Displays,2020.1.2,MacIntel,60,1,1,0.55895,1,1,0.68069,0,3,3,5,1,Stimuli/testStimuliCube/6u_s_15.png,Stimuli/testStimuliCube/6u_d_15.png,1,1,,,,,,,,,c,3D
,,,,,,,19,female,A,2020-05-13_14h25.20.400,Remembering_Displays,2020.1.2,MacIntel,60,9,1,0.789055,1,1,0.670475,0,4,4,4,1,Stimuli/testStimuliCube/6u_s_15.png,Stimuli/testStimuliCube/6u_s_15.png,0,9,,,,,,,,,c,3D
,,,,,,,19,female,A,2020-05-13_14h25.20.400,Remembering_Displays,2020.1.2,MacIntel,60,9,0,1.06765,9,1,1.066695,0,5,5,1,1,Stimuli/testStimuliCube/6u_s_13.png,Stimuli/testStimuliCube/6u_d_13.png,1,1,,,,,,,,,c,3D
,,,,,,,19,female,A,2020-05-13_14h25.20.400,Remembering_Displays,2020.1.2,MacIntel,60,1,1,0.551435,9,1,1.16689,0,6,6,21,1,Stimuli/testStimuliCube/6u_s_17_s.png,Stimuli/testStimuliCube/6u_d_17_s.png,1,1,,,,,,,,,s,3D
,,,,,,,19,female,A,2020-05-13_14h25.20.400,Remembering_Displays,2020.1.2,MacIntel,60,9,1,0.59173,9,1,0.73512,0,7,7,22,1,Stimuli/testStimuliCube/6u_s_18_s.png,Stimuli/testStimuliCube/6u_s_18_s.png,0,9,,,,,,,,,s,3D
,,,,,,,19,female,A,2020-05-13_14h25.20.400,Remembering_Displays,2020.1.2,MacIntel,60,9,1,0.642475,9,1,0.83035,0,8,8,2,1,Stimuli/testStimuliCube/6u_s_14.png,Stimuli/testStimuliCube/6u_s_14.png,0,9,,,,,,,,,c,3D
,,,,,,,19,female,A,2020-05-13_14h25.20.400,Remembering_Displays,2020.1.2,MacIntel,60,9,0,1.16284,9,1,1.00378,0,9,9,11,1,Stimuli/testStimuliCube/6u_s_18.png,Stimuli/testStimuliCube/6u_d_18.png,1,1,,,,,,,,,c,3D
,,,,,,,19,female,A,2020-05-13_14h25.20.400,Remembering_Displays,2020.1.2,MacIntel,60,9,1,0.59059,9,1,1.00019,0,10,10,8,1,Stimuli/testStimuliCube/6u_s_17.png,Stimuli/testStimuliCube/6u_s_17.png,0,9,,,,,,,,,c,3D
,,,,,,,19,female,A,2020-05-13_14h25.20.400,Remembering_Displays,2020.1.2,MacIntel,60,9,1,0.72508,1,1,0.6329,0,11,11,10,1,Stimuli/testStimuliCube/6u_s_18.png,Stimuli/testStimuliCube/6u_s_18.png,0,9,,,,,,,,,c,3D
,,,,,,,19,female,A,2020-05-13_14h25.20.400,Remembering_Displays,2020.1.2,MacIntel,60,1,1,0.67665,1,1,1.15161,0,12,12,9,1,Stimuli/testStimuliCube/6u_s_17.png,Stimuli/testStimuliCube/6u_d_17.png,1,1,,,,,,,,,c,3D
,,,,,,,19,female,A,2020-05-13_14h25.20.400,Remembering_Displays,2020.1.2,MacIntel,60,1,1,0.716885,1,1,0.93864,0,13,13,7,1,Stimuli/testStimuliCube/6u_s_16.png,Stimuli/testStimuliCube/6u_d_16.png,1,1,,,,,,,,,c,3D
,,,,,,,19,female,A,2020-05-13_14h25.20.400,Remembering_Displays,2020.1.2,MacIntel,60,9,1,0.74183,9,1,0.885895,0,14,14,12,1,Stimuli/testStimuliCube/6u_s_13_s.png,Stimuli/testStimuliCube/6u_s_13_s.png,0,9,,,,,,,,,s,3D
,,,,,,,19,female,A,2020-05-13_14h25.20.400,Remembering_Displays,2020.1.2,MacIntel,60,9,1,0.62265,9,1,0.78846,0,15,15,18,1,Stimuli/testStimuliCube/6u_s_16_s.png,Stimuli/testStimuliCube/6u_s_16_s.png,0,9,,,,,,,,,s,3D
,,,,,,,19,female,A,2020-05-13_14h25.20.400,Remembering_Displays,2020.1.2,MacIntel,60,1,1,0.62891,9,1,1.014265,0,16,16,3,1,Stimuli/testStimuliCube/6u_s_14.png,Stimuli/testStimuliCube/6u_d_14.png,1,1,,,,,,,,,c,3D
,,,,,,,19,female,A,2020-05-13_14h25.20.400,Remembering_Displays,2020.1.2,MacIntel,60,9,1,0.874005,1,1,0.735825,0,17,17,20,1,Stimuli/testStimuliCube/6u_s_17_s.png,Stimuli/testStimuliCube/6u_s_17_s.png,0,9,,,,,,,,,s,3D
,,,,,,,19,female,A,2020-05-13_14h25.20.400,Remembering_Displays,2020.1.2,MacIntel,60,1,0,1.22215,9,1,1.08355,0,18,18,14,1,Stimuli/testStimuliCube/6u_s_14_s.png,Stimuli/testStimuliCube/6u_s_14_s.png,0,9,,,,,,,,,s,3D
,,,,,,,19,female,A,2020-05-13_14h25.20.400,Remembering_Displays,2020.1.2,MacIntel,60,1,1,0.69976,1,1,1.03666,0,19,19,23,1,Stimuli/testStimuliCube/6u_s_18_s.png,Stimuli/testStimuliCube/6u_d_18_s.png,1,1,,,,,,,,,s,3D
,,,,,,,19,female,A,2020-05-13_14h25.20.400,Remembering_Displays,2020.1.2,MacIntel,60,1,1,0.51431,1,1,0.900765,0,20,20,17,1,Stimuli/testStimuliCube/6u_s_15_s.png,Stimuli/testStimuliCube/6u_d_15_s.png,1,1,,,,,,,,,s,3D
,,,,,,,19,female,A,2020-05-13_14h25.20.400,Remembering_Displays,2020.1.2,MacIntel,60,1,1,0.83373,1,1,0.78126,0,21,21,19,1,Stimuli/testStimuliCube/6u_s_16_s.png,Stimuli/testStimuliCube/6u_d_16_s.png,1,1,,,,,,,,,s,3D
,,,,,,,19,female,A,2020-05-13_14h25.20.400,Remembering_Displays,2020.1.2,MacIntel,60,9,1,0.690515,9,0,0.950155,0,22,22,6,1,Stimuli/testStimuliCube/6u_s_16.png,Stimuli/testStimuliCube/6u_s_16.png,0,9,,,,,,,,,c,3D
,,,,,,,19,female,A,2020-05-13_14h25.20.400,Remembering_Displays,2020.1.2,MacIntel,60,1,1,0.66441,1,1,1.115585,0,23,23,15,1,Stimuli/testStimuliCube/6u_s_14_s.png,Stimuli/testStimuliCube/6u_d_14_s.png,1,1,,,,,,,,,s,3D
,,,,,,,19,female,A,2020-05-13_14h25.20.400,Remembering_Displays,2020.1.2,MacIntel,60,,,,,,,,,,,,,,,,0,5,5,5,1,Stimuli/trialListCubes3.xlsx,Instructions/instr_19.png,Progress: 96 of 192 trials completed,,
,,,,,,,19,female,A,2020-05-13_14h25.20.400,Remembering_Displays,2020.1.2,MacIntel,60,1,1,0.47064,9,1,0.682315,0,0,0,5,1,Stimuli/testStimuliSquare/6u_s_15_2D.png,Stimuli/testStimuliSquare/6u_d_15_2D.png,1,1,,,,,,,,,c,2D
,,,,,,,19,female,A,2020-05-13_14h25.20.400,Remembering_Displays,2020.1.2,MacIntel,60,1,1,0.648765,1,1,0.753515,0,1,1,13,1,Stimuli/testStimuliSquare/6u_s_13_s_2D.png,Stimuli/testStimuliSquare/6u_d_13_s_2D.png,1,1,,,,,,,,,s,2D
,,,,,,,19,female,A,2020-05-13_14h25.20.400,Remembering_Displays,2020.1.2,MacIntel,60,1,1,0.514115,9,1,1.68988,0,2,2,19,1,Stimuli/testStimuliSquare/6u_s_16_s_2D.png,Stimuli/testStimuliSquare/6u_d_16_s_2D.png,1,1,,,,,,,,,s,2D
,,,,,,,19,female,A,2020-05-13_14h25.20.400,Remembering_Displays,2020.1.2,MacIntel,60,9,1,0.57507,9,1,1.1847,0,3,3,2,1,Stimuli/testStimuliSquare/6u_s_14_2D.png,Stimuli/testStimuliSquare/6u_s_14_2D.png,0,9,,,,,,,,,c,2D
,,,,,,,19,female,A,2020-05-13_14h25.20.400,Remembering_Displays,2020.1.2,MacIntel,60,9,1,0.55578,9,1,0.88324,0,4,4,16,1,Stimuli/testStimuliSquare/6u_s_15_s_2D.png,Stimuli/testStimuliSquare/6u_s_15_s_2D.png,0,9,,,,,,,,,s,2D
,,,,,,,19,female,A,2020-05-13_14h25.20.400,Remembering_Displays,2020.1.2,MacIntel,60,9,1,0.871195,9,1,0.751185,0,5,5,12,1,Stimuli/testStimuliSquare/6u_s_13_s_2D.png,Stimuli/testStimuliSquare/6u_s_13_s_2D.png,0,9,,,,,,,,,s,2D
,,,,,,,19,female,A,2020-05-13_14h25.20.400,Remembering_Displays,2020.1.2,MacIntel,60,1,1,0.52365,9,1,0.935075,0,6,6,3,1,Stimuli/testStimuliSquare/6u_s_14_2D.png,Stimuli/testStimuliSquare/6u_d_14_2D.png,1,1,,,,,,,,,c,2D
,,,,,,,19,female,A,2020-05-13_14h25.20.400,Remembering_Displays,2020.1.2,MacIntel,60,9,1,0.59107,9,1,0.783025,0,7,7,10,1,Stimuli/testStimuliSquare/6u_s_18_2D.png,Stimuli/testStimuliSquare/6u_s_18_2D.png,0,9,,,,,,,,,c,2D
,,,,,,,19,female,A,2020-05-13_14h25.20.400,Remembering_Displays,2020.1.2,MacIntel,60,9,1,0.48901,9,0,24.28298,0,8,8,18,1,Stimuli/testStimuliSquare/6u_s_16_s_2D.png,Stimuli/testStimuliSquare/6u_s_16_s_2D.png,0,9,,,,,,,,,s,2D
,,,,,,,19,female,A,2020-05-13_14h25.20.400,Remembering_Displays,2020.1.2,MacIntel,60,9,1,0.538555,1,1,0.634525,0,9,9,6,1,Stimuli/testStimuliSquare/6u_s_16_2D.png,Stimuli/testStimuliSquare/6u_s_16_2D.png,0,9,,,,,,,,,c,2D
,,,,,,,19,female,A,2020-05-13_14h25.20.400,Remembering_Displays,2020.1.2,MacIntel,60,9,0,0.627355,1,1,0.733655,0,10,10,1,1,Stimuli/testStimuliSquare/6u_s_13_2D.png,Stimuli/testStimuliSquare/6u_d_13_2D.png,1,1,,,,,,,,,c,2D
,,,,,,,19,female,A,2020-05-13_14h25.20.400,Remembering_Displays,2020.1.2,MacIntel,60,1,0,1.0081,9,1,0.58293,0,11,11,20,1,Stimuli/testStimuliSquare/6u_s_17_s_2D.png,Stimuli/testStimuliSquare/6u_s_17_s_2D.png,0,9,,,,,,,,,s,2D
,,,,,,,19,female,A,2020-05-13_14h25.20.400,Remembering_Displays,2020.1.2,MacIntel,60,1,1,0.568735,1,1,0.5838,0,12,12,15,1,Stimuli/testStimuliSquare/6u_s_14_s_2D.png,Stimuli/testStimuliSquare/6u_d_14_s_2D.png,1,1,,,,,,,,,s,2D
,,,,,,,19,female,A,2020-05-13_14h25.20.400,Remembering_Displays,2020.1.2,MacIntel,60,9,1,0.654855,9,1,0.752375,0,13,13,14,1,Stimuli/testStimuliSquare/6u_s_14_s_2D.png,Stimuli/testStimuliSquare/6u_s_14_s_2D.png,0,9,,,,,,,,,s,2D
,,,,,,,19,female,A,2020-05-13_14h25.20.400,Remembering_Displays,2020.1.2,MacIntel,60,1,1,0.581625,1,1,0.565905,0,14,14,21,1,Stimuli/testStimuliSquare/6u_s_17_s_2D.png,Stimuli/testStimuliSquare/6u_d_17_s_2D.png,1,1,,,,,,,,,s,2D
,,,,,,,19,female,A,2020-05-13_14h25.20.400,Remembering_Displays,2020.1.2,MacIntel,60,1,1,0.57213,1,1,1.12215,0,15,15,7,1,Stimuli/testStimuliSquare/6u_s_16_2D.png,Stimuli/testStimuliSquare/6u_d_16_2D.png,1,1,,,,,,,,,c,2D
,,,,,,,19,female,A,2020-05-13_14h25.20.400,Remembering_Displays,2020.1.2,MacIntel,60,9,1,0.504705,1,1,0.583505,0,16,16,0,1,Stimuli/testStimuliSquare/6u_s_13_2D.png,Stimuli/testStimuliSquare/6u_s_13_2D.png,0,9,,,,,,,,,c,2D
,,,,,,,19,female,A,2020-05-13_14h25.20.400,Remembering_Displays,2020.1.2,MacIntel,60,9,0,0.471955,9,1,1.183195,0,17,17,11,1,Stimuli/testStimuliSquare/6u_s_18_2D.png,Stimuli/testStimuliSquare/6u_d_18_2D.png,1,1,,,,,,,,,c,2D
,,,,,,,19,female,A,2020-05-13_14h25.20.400,Remembering_Displays,2020.1.2,MacIntel,60,1,1,0.599335,1,1,1.3474,0,18,18,23,1,Stimuli/testStimuliSquare/6u_s_18_s_2D.png,Stimuli/testStimuliSquare/6u_d_18_s_2D.png,1,1,,,,,,,,,s,2D
,,,,,,,19,female,A,2020-05-13_14h25.20.400,Remembering_Displays,2020.1.2,MacIntel,60,1,0,1.124365,1,0,2.133085,0,19,19,22,1,Stimuli/testStimuliSquare/6u_s_18_s_2D.png,Stimuli/testStimuliSquare/6u_s_18_s_2D.png,0,9,,,,,,,,,s,2D
,,,,,,,19,female,A,2020-05-13_14h25.20.400,Remembering_Displays,2020.1.2,MacIntel,60,1,1,0.600705,9,1,1.35164,0,20,20,17,1,Stimuli/testStimuliSquare/6u_s_15_s_2D.png,Stimuli/testStimuliSquare/6u_d_15_s_2D.png,1,1,,,,,,,,,s,2D
,,,,,,,19,female,A,2020-05-13_14h25.20.400,Remembering_Displays,2020.1.2,MacIntel,60,1,1,0.575185,9,1,1.61946,0,21,21,9,1,Stimuli/testStimuliSquare/6u_s_17_2D.png,Stimuli/testStimuliSquare/6u_d_17_2D.png,1,1,,,,,,,,,c,2D
,,,,,,,19,female,A,2020-05-13_14h25.20.400,Remembering_Displays,2020.1.2,MacIntel,60,9,1,0.491745,1,1,0.95403,0,22,22,8,1,Stimuli/testStimuliSquare/6u_s_17_2D.png,Stimuli/testStimuliSquare/6u_s_17_2D.png,0,9,,,,,,,,,c,2D
,,,,,,,19,female,A,2020-05-13_14h25.20.400,Remembering_Displays,2020.1.2,MacIntel,60,9,1,0.57156,1,1,0.767205,0,23,23,4,1,Stimuli/testStimuliSquare/6u_s_15_2D.png,Stimuli/testStimuliSquare/6u_s_15_2D.png,0,9,,,,,,,,,c,2D
,,,,,,,19,female,A,2020-05-13_14h25.20.400,Remembering_Displays,2020.1.2,MacIntel,60,,,,,,,,,,,,,,,,0,6,6,6,1,Stimuli/trialListSquares3.xlsx,Instructions/instr_18.png,Progress: 120 of 192 trials completed,,
,,,,,,,19,female,A,2020-05-13_14h25.20.400,Remembering_Displays,2020.1.2,MacIntel,60,1,1,0.812215,9,1,0.61739,0,0,0,21,1,Stimuli/testStimuliCube/6u_s_11_s.png,Stimuli/testStimuliCube/6u_d_11_s.png,1,1,,,,,,,,,s,3D
,,,,,,,19,female,A,2020-05-13_14h25.20.400,Remembering_Displays,2020.1.2,MacIntel,60,9,1,0.708215,1,1,0.83512,0,1,1,20,1,Stimuli/testStimuliCube/6u_s_11_s.png,Stimuli/testStimuliCube/6u_s_11_s.png,0,9,,,,,,,,,s,3D
,,,,,,,19,female,A,2020-05-13_14h25.20.400,Remembering_Displays,2020.1.2,MacIntel,60,9,1,0.54053,1,1,1.937295,0,2,2,2,1,Stimuli/testStimuliCube/6u_s_8.png,Stimuli/testStimuliCube/6u_s_8.png,0,9,,,,,,,,,c,3D
,,,,,,,19,female,A,2020-05-13_14h25.20.400,Remembering_Displays,2020.1.2,MacIntel,60,1,1,0.935295,1,1,0.839255,0,3,3,23,1,Stimuli/testStimuliCube/6u_s_12_s.png,Stimuli/testStimuliCube/6u_d_12_s.png,1,1,,,,,,,,,s,3D
,,,,,,,19,female,A,2020-05-13_14h25.20.400,Remembering_Displays,2020.1.2,MacIntel,60,9,0,0.51607,9,1,1.12012,0,4,4,5,1,Stimuli/testStimuliCube/6u_s_9.png,Stimuli/testStimuliCube/6u_d_9.png,1,1,,,,,,,,,c,3D
,,,,,,,19,female,A,2020-05-13_14h25.20.400,Remembering_Displays,2020.1.2,MacIntel,60,9,1,0.64352,1,1,0.46385,0,5,5,4,1,Stimuli/testStimuliCube/6u_s_9.png,Stimuli/testStimuliCube/6u_s_9.png,0,9,,,,,,,,,c,3D
,,,,,,,19,female,A,2020-05-13_14h25.20.400,Remembering_Displays,2020.1.2,MacIntel,60,9,1,0.593525,1,1,0.955605,0,6,6,12,1,Stimuli/testStimuliCube/6u_s_7_s.png,Stimuli/testStimuliCube/6u_s_7_s.png,0,9,,,,,,,,,s,3D
,,,,,,,19,female,A,2020-05-13_14h25.20.400,Remembering_Displays,2020.1.2,MacIntel,60,1,1,0.64614,9,1,0.965875,0,7,7,13,1,Stimuli/testStimuliCube/6u_s_7_s.png,Stimuli/testStimuliCube/6u_d_7_s.png,1,1,,,,,,,,,s,3D
,,,,,,,19,female,A,2020-05-13_14h25.20.400,Remembering_Displays,2020.1.2,MacIntel,60,1,1,0.62894,9,1,1.120805,0,8,8,11,1,Stimuli/testStimuliCube/6u_s_12.png,Stimuli/testStimuliCube/6u_d_12.png,1,1,,,,,,,,,c,3D
,,,,,,,19,female,A,2020-05-13_14h25.20.400,Remembering_Displays,2020.1.2,MacIntel,60,1,1,0.61065,9,1,1.40093,0,9,9,1,1,Stimuli/testStimuliCube/6u_s_7.png,Stimuli/testStimuliCube/6u_d_7.png,1,1,,,,,,,,,c,3D
,,,,,,,19,female,A,2020-05-13_14h25.20.400,Remembering_Displays,2020.1.2,MacIntel,60,9,1,0.956915,9,1,0.68013,0,10,10,10,1,Stimuli/testStimuliCube/6u_s_12.png,Stimuli/testStimuliCube/6u_s_12.png,0,9,,,,,,,,,c,3D
,,,,,,,19,female,A,2020-05-13_14h25.20.400,Remembering_Displays,2020.1.2,MacIntel,60,9,1,0.541355,1,1,0.81753,0,11,11,8,1,Stimuli/testStimuliCube/6u_s_11.png,Stimuli/testStimuliCube/6u_s_11.png,0,9,,,,,,,,,c,3D
,,,,,,,19,female,A,2020-05-13_14h25.20.400,Remembering_Displays,2020.1.2,MacIntel,60,1,1,1.195985,1,1,0.854475,0,12,12,15,1,Stimuli/testStimuliCube/6u_s_8_s.png,Stimuli/testStimuliCube/6u_d_8_s.png,1,1,,,,,,,,,s,3D
,,,,,,,19,female,A,2020-05-13_14h25.20.400,Remembering_Displays,2020.1.2,MacIntel,60,9,1,0.534765,9,1,1.197685,0,13,13,22,1,Stimuli/testStimuliCube/6u_s_12_s.png,Stimuli/testStimuliCube/6u_s_12_s.png,0,9,,,,,,,,,s,3D
,,,,,,,19,female,A,2020-05-13_14h25.20.400,Remembering_Displays,2020.1.2,MacIntel,60,9,1,0.53647,1,1,1.123645,0,14,14,0,1,Stimuli/testStimuliCube/6u_s_7.png,Stimuli/testStimuliCube/6u_s_7.png,0,9,,,,,,,,,c,3D
,,,,,,,19,female,A,2020-05-13_14h25.20.400,Remembering_Displays,2020.1.2,MacIntel,60,1,1,0.650755,1,1,1.097155,0,15,15,19,1,Stimuli/testStimuliCube/6u_s_10_s.png,Stimuli/testStimuliCube/6u_d_10_s.png,1,1,,,,,,,,,s,3D
,,,,,,,19,female,A,2020-05-13_14h25.20.400,Remembering_Displays,2020.1.2,MacIntel,60,1,1,0.580875,1,1,0.9008,0,16,16,7,1,Stimuli/testStimuliCube/6u_s_10.png,Stimuli/testStimuliCube/6u_d_10.png,1,1,,,,,,,,,c,3D
,,,,,,,19,female,A,2020-05-13_14h25.20.400,Remembering_Displays,2020.1.2,MacIntel,60,1,1,0.66326,9,1,0.836345,0,17,17,3,1,Stimuli/testStimuliCube/6u_s_8.png,Stimuli/testStimuliCube/6u_d_8.png,1,1,,,,,,,,,c,3D
,,,,,,,19,female,A,2020-05-13_14h25.20.400,Remembering_Displays,2020.1.2,MacIntel,60,9,1,0.577535,1,1,0.5161,0,18,18,14,1,Stimuli/testStimuliCube/6u_s_8_s.png,Stimuli/testStimuliCube/6u_s_8_s.png,0,9,,,,,,,,,s,3D
,,,,,,,19,female,A,2020-05-13_14h25.20.400,Remembering_Displays,2020.1.2,MacIntel,60,9,1,0.451435,1,1,0.98951,0,19,19,6,1,Stimuli/testStimuliCube/6u_s_10.png,Stimuli/testStimuliCube/6u_s_10.png,0,9,,,,,,,,,c,3D
,,,,,,,19,female,A,2020-05-13_14h25.20.400,Remembering_Displays,2020.1.2,MacIntel,60,1,1,0.694205,9,1,1.038355,0,20,20,9,1,Stimuli/testStimuliCube/6u_s_11.png,Stimuli/testStimuliCube/6u_d_11.png,1,1,,,,,,,,,c,3D
,,,,,,,19,female,A,2020-05-13_14h25.20.400,Remembering_Displays,2020.1.2,MacIntel,60,9,1,0.54405,1,1,0.499235,0,21,21,18,1,Stimuli/testStimuliCube/6u_s_10_s.png,Stimuli/testStimuliCube/6u_s_10_s.png,0,9,,,,,,,,,s,3D
,,,,,,,19,female,A,2020-05-13_14h25.20.400,Remembering_Displays,2020.1.2,MacIntel,60,1,1,0.70118,9,1,0.568025,0,22,22,17,1,Stimuli/testStimuliCube/6u_s_9_s.png,Stimuli/testStimuliCube/6u_d_9_s.png,1,1,,,,,,,,,s,3D
,,,,,,,19,female,A,2020-05-13_14h25.20.400,Remembering_Displays,2020.1.2,MacIntel,60,9,1,0.63844,9,1,0.850475,0,23,23,16,1,Stimuli/testStimuliCube/6u_s_9_s.png,Stimuli/testStimuliCube/6u_s_9_s.png,0,9,,,,,,,,,s,3D
,,,,,,,19,female,A,2020-05-13_14h25.20.400,Remembering_Displays,2020.1.2,MacIntel,60,,,,,,,,,,,,,,,,0,7,7,7,1,Stimuli/trialListCubes2.xlsx,Instructions/instr_19.png,Progress: 144 of 192 trials completed,,
,,,,,,,19,female,A,2020-05-13_14h25.20.400,Remembering_Displays,2020.1.2,MacIntel,60,1,1,0.558945,9,1,0.83072,0,0,0,7,1,Stimuli/testStimuliSquare/6u_s_22_2D.png,Stimuli/testStimuliSquare/6u_d_22_2D.png,1,1,,,,,,,,,c,2D
,,,,,,,19,female,A,2020-05-13_14h25.20.400,Remembering_Displays,2020.1.2,MacIntel,60,1,1,0.53217,1,1,0.93381,0,1,1,17,1,Stimuli/testStimuliSquare/6u_s_21_s_2D.png,Stimuli/testStimuliSquare/6u_d_21_s_2D.png,1,1,,,,,,,,,s,2D
,,,,,,,19,female,A,2020-05-13_14h25.20.400,Remembering_Displays,2020.1.2,MacIntel,60,1,0,1.04243,1,1,0.78793,0,2,2,22,1,Stimuli/testStimuliSquare/6u_s_24_s_2D.png,Stimuli/testStimuliSquare/6u_s_24_s_2D.png,0,9,,,,,,,,,s,2D
,,,,,,,19,female,A,2020-05-13_14h25.20.400,Remembering_Displays,2020.1.2,MacIntel,60,9,1,0.60494,9,1,0.650295,0,3,3,20,1,Stimuli/testStimuliSquare/6u_s_23_s_2D.png,Stimuli/testStimuliSquare/6u_s_23_s_2D.png,0,9,,,,,,,,,s,2D
,,,,,,,19,female,A,2020-05-13_14h25.20.400,Remembering_Displays,2020.1.2,MacIntel,60,9,1,0.890425,1,1,0.53375,0,4,4,2,1,Stimuli/testStimuliSquare/6u_s_20_2D.png,Stimuli/testStimuliSquare/6u_s_20_2D.png,0,9,,,,,,,,,c,2D
,,,,,,,19,female,A,2020-05-13_14h25.20.400,Remembering_Displays,2020.1.2,MacIntel,60,1,1,0.93979,1,1,1.06982,0,5,5,9,1,Stimuli/testStimuliSquare/6u_s_23_2D.png,Stimuli/testStimuliSquare/6u_d_23_2D.png,1,1,,,,,,,,,c,2D
,,,,,,,19,female,A,2020-05-13_14h25.20.400,Remembering_Displays,2020.1.2,MacIntel,60,9,0,0.840335,1,1,0.59674,0,6,6,11,1,Stimuli/testStimuliSquare/6u_s_24_2D.png,Stimuli/testStimuliSquare/6u_d_24_2D.png,1,1,,,,,,,,,c,2D
,,,,,,,19,female,A,2020-05-13_14h25.20.400,Remembering_Displays,2020.1.2,MacIntel,60,9,1,0.687065,9,1,0.721135,0,7,7,18,1,Stimuli/testStimuliSquare/6u_s_22_s_2D.png,Stimuli/testStimuliSquare/6u_s_22_s_2D.png,0,9,,,,,,,,,s,2D
,,,,,,,19,female,A,2020-05-13_14h25.20.400,Remembering_Displays,2020.1.2,MacIntel,60,1,1,0.64942,1,1,0.98644,0,8,8,21,1,Stimuli/testStimuliSquare/6u_s_23_s_2D.png,Stimuli/testStimuliSquare/6u_d_23_s_2D.png,1,1,,,,,,,,,s,2D
,,,,,,,19,female,A,2020-05-13_14h25.20.400,Remembering_Displays,2020.1.2,MacIntel,60,9,1,1.205335,9,1,0.835235,0,9,9,10,1,Stimuli/testStimuliSquare/6u_s_24_2D.png,Stimuli/testStimuliSquare/6u_s_24_2D.png,0,9,,,,,,,,,c,2D
,,,,,,,19,female,A,2020-05-13_14h25.20.400,Remembering_Displays,2020.1.2,MacIntel,60,9,1,0.542245,1,1,1.200225,0,10,10,6,1,Stimuli/testStimuliSquare/6u_s_22_2D.png,Stimuli/testStimuliSquare/6u_s_22_2D.png,0,9,,,,,,,,,c,2D
,,,,,,,19,female,A,2020-05-13_14h25.20.400,Remembering_Displays,2020.1.2,MacIntel,60,1,1,0.533025,9,1,0.8344,0,11,11,19,1,Stimuli/testStimuliSquare/6u_s_22_s_2D.png,Stimuli/testStimuliSquare/6u_d_22_s_2D.png,1,1,,,,,,,,,s,2D
,,,,,,,19,female,A,2020-05-13_14h25.20.400,Remembering_Displays,2020.1.2,MacIntel,60,9,1,0.46144,9,1,1.016005,0,12,12,0,1,Stimuli/testStimuliSquare/6u_s_19_2D.png,Stimuli/testStimuliSquare/6u_s_19_2D.png,0,9,,,,,,,,,c,2D
,,,,,,,19,female,A,2020-05-13_14h25.20.400,Remembering_Displays,2020.1.2,MacIntel,60,9,1,0.5223,9,1,0.88081,0,13,13,8,1,Stimuli/testStimuliSquare/6u_s_23_2D.png,Stimuli/testStimuliSquare/6u_s_23_2D.png,0,9,,,,,,,,,c,2D
,,,,,,,19,female,A,2020-05-13_14h25.20.400,Remembering_Displays,2020.1.2,MacIntel,60,1,1,0.54951,9,1,1.16725,0,14,14,15,1,Stimuli/testStimuliSquare/6u_s_20_s_2D.png,Stimuli/testStimuliSquare/6u_d_20_s_2D.png,1,1,,,,,,,,,s,2D
,,,,,,,19,female,A,2020-05-13_14h25.20.400,Remembering_Displays,2020.1.2,MacIntel,60,1,1,0.63268,9,1,0.80101,0,15,15,23,1,Stimuli/testStimuliSquare/6u_s_24_s_2D.png,Stimuli/testStimuliSquare/6u_d_24_s_2D.png,1,1,,,,,,,,,s,2D
,,,,,,,19,female,A,2020-05-13_14h25.20.400,Remembering_Displays,2020.1.2,MacIntel,60,9,1,0.722905,1,1,1.638465,0,16,16,12,1,Stimuli/testStimuliSquare/6u_s_19_s_2D.png,Stimuli/testStimuliSquare/6u_s_19_s_2D.png,0,9,,,,,,,,,s,2D
,,,,,,,19,female,A,2020-05-13_14h25.20.400,Remembering_Displays,2020.1.2,MacIntel,60,1,1,0.55793,1,1,1.034285,0,17,17,5,1,Stimuli/testStimuliSquare/6u_s_21_2D.png,Stimuli/testStimuliSquare/6u_d_21_2D.png,1,1,,,,,,,,,c,2D
,,,,,,,19,female,A,2020-05-13_14h25.20.400,Remembering_Displays,2020.1.2,MacIntel,60,1,1,0.50857,9,1,0.704465,0,18,18,1,1,Stimuli/testStimuliSquare/6u_s_19_2D.png,Stimuli/testStimuliSquare/6u_d_19_2D.png,1,1,,,,,,,,,c,2D
,,,,,,,19,female,A,2020-05-13_14h25.20.400,Remembering_Displays,2020.1.2,MacIntel,60,1,0,0.756895,9,0,1.33639,0,19,19,16,1,Stimuli/testStimuliSquare/6u_s_21_s_2D.png,Stimuli/testStimuliSquare/6u_s_21_s_2D.png,0,9,,,,,,,,,s,2D
,,,,,,,19,female,A,2020-05-13_14h25.20.400,Remembering_Displays,2020.1.2,MacIntel,60,9,1,0.57499,1,1,1.49994,0,20,20,14,1,Stimuli/testStimuliSquare/6u_s_20_s_2D.png,Stimuli/testStimuliSquare/6u_s_20_s_2D.png,0,9,,,,,,,,,s,2D
,,,,,,,19,female,A,2020-05-13_14h25.20.400,Remembering_Displays,2020.1.2,MacIntel,60,1,1,0.491095,9,1,0.80075,0,21,21,3,1,Stimuli/testStimuliSquare/6u_s_20_2D.png,Stimuli/testStimuliSquare/6u_d_20_2D.png,1,1,,,,,,,,,c,2D
,,,,,,,19,female,A,2020-05-13_14h25.20.400,Remembering_Displays,2020.1.2,MacIntel,60,9,1,0.59059,1,1,0.571315,0,22,22,4,1,Stimuli/testStimuliSquare/6u_s_21_2D.png,Stimuli/testStimuliSquare/6u_s_21_2D.png,0,9,,,,,,,,,c,2D
,,,,,,,19,female,A,2020-05-13_14h25.20.400,Remembering_Displays,2020.1.2,MacIntel,60,,0,,1,1,1.089565,0,23,23,13,1,Stimuli/testStimuliSquare/6u_s_19_s_2D.png,Stimuli/testStimuliSquare/6u_d_19_s_2D.png,1,1,,,,,,,,,s,2D
,,,,,,,19,female,A,2020-05-13_14h25.20.400,Remembering_Displays,2020.1.2,MacIntel,60,,,,,,,,,,,,,,,,0,8,8,8,1,Stimuli/trialListSquares4.xlsx,Instructions/instr_18.png,Progress: 168 of 192 trials completed,,
,,,,,,,19,female,A,2020-05-13_14h25.20.400,Remembering_Displays,2020.1.2,MacIntel,60,9,1,0.53704,9,1,0.703695,0,0,0,10,1,Stimuli/testStimuliCube/6u_s_6.png,Stimuli/testStimuliCube/6u_s_6.png,0,9,,,,,,,,,c,3D
,,,,,,,19,female,A,2020-05-13_14h25.20.400,Remembering_Displays,2020.1.2,MacIntel,60,9,1,0.65641,1,1,1.750805,0,1,1,4,1,Stimuli/testStimuliCube/6u_s_3.png,Stimuli/testStimuliCube/6u_s_3.png,0,9,,,,,,,,,c,3D
,,,,,,,19,female,A,2020-05-13_14h25.20.400,Remembering_Displays,2020.1.2,MacIntel,60,1,1,0.579215,9,1,0.701945,0,2,2,9,1,Stimuli/testStimuliCube/6u_s_5.png,Stimuli/testStimuliCube/6u_d_5.png,1,1,,,,,,,,,c,3D
,,,,,,,19,female,A,2020-05-13_14h25.20.400,Remembering_Displays,2020.1.2,MacIntel,60,9,1,0.556075,9,0,0.93511,0,3,3,8,1,Stimuli/testStimuliCube/6u_s_5.png,Stimuli/testStimuliCube/6u_s_5.png,0,9,,,,,,,,,c,3D
,,,,,,,19,female,A,2020-05-13_14h25.20.400,Remembering_Displays,2020.1.2,MacIntel,60,9,1,0.535975,1,1,1.051395,0,4,4,0,1,Stimuli/testStimuliCube/6u_s_1.png,Stimuli/testStimuliCube/6u_s_1.png,0,9,,,,,,,,,c,3D
,,,,,,,19,female,A,2020-05-13_14h25.20.400,Remembering_Displays,2020.1.2,MacIntel,60,1,1,0.536865,9,1,1.15078,0,5,5,15,1,Stimuli/testStimuliCube/6u_s_2_s.png,Stimuli/testStimuliCube/6u_d_2_s.png,1,1,,,,,,,,,s,3D
,,,,,,,19,female,A,2020-05-13_14h25.20.400,Remembering_Displays,2020.1.2,MacIntel,60,1,1,0.637,1,1,1.237645,0,6,6,17,1,Stimuli/testStimuliCube/6u_s_3_s.png,Stimuli/testStimuliCube/6u_d_3_s.png,1,1,,,,,,,,,s,3D
,,,,,,,19,female,A,2020-05-13_14h25.20.400,Remembering_Displays,2020.1.2,MacIntel,60,1,1,0.51474,1,1,0.684855,0,7,7,5,1,Stimuli/testStimuliCube/6u_s_3.png,Stimuli/testStimuliCube/6u_d_3.png,1,1,,,,,,,,,c,3D
,,,,,,,19,female,A,2020-05-13_14h25.20.400,Remembering_Displays,2020.1.2,MacIntel,60,9,1,0.574015,1,1,0.967675,0,8,8,6,1,Stimuli/testStimuliCube/6u_s_4.png,Stimuli/testStimuliCube/6u_s_4.png,0,9,,,,,,,,,c,3D
,,,,,,,19,female,A,2020-05-13_14h25.20.400,Remembering_Displays,2020.1.2,MacIntel,60,1,1,0.650395,9,1,0.800355,0,9,9,23,1,Stimuli/testStimuliCube/6u_s_6_s.png,Stimuli/testStimuliCube/6u_d_6_s.png,1,1,,,,,,,,,s,3D
,,,,,,,19,female,A,2020-05-13_14h25.20.400,Remembering_Displays,2020.1.2,MacIntel,60,1,1,0.582365,1,1,0.61847,0,10,10,11,1,Stimuli/testStimuliCube/6u_s_6.png,Stimuli/testStimuliCube/6u_d_6.png,1,1,,,,,,,,,c,3D
,,,,,,,19,female,A,2020-05-13_14h25.20.400,Remembering_Displays,2020.1.2,MacIntel,60,1,1,0.6587,1,1,1.469395,0,11,11,3,1,Stimuli/testStimuliCube/6u_s_2.png,Stimuli/testStimuliCube/6u_d_2.png,1,1,,,,,,,,,c,3D
,,,,,,,19,female,A,2020-05-13_14h25.20.400,Remembering_Displays,2020.1.2,MacIntel,60,9,1,0.65832,9,1,0.75329,0,12,12,2,1,Stimuli/testStimuliCube/6u_s_2.png,Stimuli/testStimuliCube/6u_s_2.png,0,9,,,,,,,,,c,3D
,,,,,,,19,female,A,2020-05-13_14h25.20.400,Remembering_Displays,2020.1.2,MacIntel,60,9,0,0.65205,9,1,1.47024,0,13,13,21,1,Stimuli/testStimuliCube/6u_s_5_s.png,Stimuli/testStimuliCube/6u_d_5_s.png,1,1,,,,,,,,,s,3D
,,,,,,,19,female,A,2020-05-13_14h25.20.400,Remembering_Displays,2020.1.2,MacIntel,60,1,1,0.544635,9,1,1.584395,0,14,14,7,1,Stimuli/testStimuliCube/6u_s_4.png,Stimuli/testStimuliCube/6u_d_4.png,1,1,,,,,,,,,c,3D
,,,,,,,19,female,A,2020-05-13_14h25.20.400,Remembering_Displays,2020.1.2,MacIntel,60,9,1,0.67543,9,1,0.701615,0,15,15,12,1,Stimuli/testStimuliCube/6u_s_1_s.png,Stimuli/testStimuliCube/6u_s_1_s.png,0,9,,,,,,,,,s,3D
,,,,,,,19,female,A,2020-05-13_14h25.20.400,Remembering_Displays,2020.1.2,MacIntel,60,9,1,0.64114,1,1,1.04988,0,16,16,20,1,Stimuli/testStimuliCube/6u_s_5_s.png,Stimuli/testStimuliCube/6u_s_5_s.png,0,9,,,,,,,,,s,3D
,,,,,,,19,female,A,2020-05-13_14h25.20.400,Remembering_Displays,2020.1.2,MacIntel,60,1,1,0.498375,1,1,0.99976,0,17,17,19,1,Stimuli/testStimuliCube/6u_s_4_s.png,Stimuli/testStimuliCube/6u_d_4_s.png,1,1,,,,,,,,,s,3D
,,,,,,,19,female,A,2020-05-13_14h25.20.400,Remembering_Displays,2020.1.2,MacIntel,60,1,1,0.495775,9,1,0.967025,0,18,18,1,1,Stimuli/testStimuliCube/6u_s_1.png,Stimuli/testStimuliCube/6u_d_1.png,1,1,,,,,,,,,c,3D
,,,,,,,19,female,A,2020-05-13_14h25.20.400,Remembering_Displays,2020.1.2,MacIntel,60,9,1,0.57428,9,1,1.25155,0,19,19,14,1,Stimuli/testStimuliCube/6u_s_2_s.png,Stimuli/testStimuliCube/6u_s_2_s.png,0,9,,,,,,,,,s,3D
,,,,,,,19,female,A,2020-05-13_14h25.20.400,Remembering_Displays,2020.1.2,MacIntel,60,9,1,0.542035,9,1,1.400475,0,20,20,22,1,Stimuli/testStimuliCube/6u_s_6_s.png,Stimuli/testStimuliCube/6u_s_6_s.png,0,9,,,,,,,,,s,3D
,,,,,,,19,female,A,2020-05-13_14h25.20.400,Remembering_Displays,2020.1.2,MacIntel,60,9,1,0.590055,9,1,0.879995,0,21,21,18,1,Stimuli/testStimuliCube/6u_s_4_s.png,Stimuli/testStimuliCube/6u_s_4_s.png,0,9,,,,,,,,,s,3D
,,,,,,,19,female,A,2020-05-13_14h25.20.400,Remembering_Displays,2020.1.2,MacIntel,60,9,1,0.55827,1,1,1.167865,0,22,22,16,1,Stimuli/testStimuliCube/6u_s_3_s.png,Stimuli/testStimuliCube/6u_s_3_s.png,0,9,,,,,,,,,s,3D
,,,,,,,19,female,A,2020-05-13_14h25.20.400,Remembering_Displays,2020.1.2,MacIntel,60,1,1,0.48415,9,1,0.95029,0,23,23,13,1,Stimuli/testStimuliCube/6u_s_1_s.png,Stimuli/testStimuliCube/6u_d_1_s.png,1,1,,,,,,,,,s,3D