instr_Loop.thisRepN,instr_Loop.thisTrialN,instr_Loop.thisN,instr_Loop.thisIndex,instr_Loop.ran,instructionImage,time,age,sex (female/male),order,date,expName,psychopyVersion,OS,frameRate,struc_judge_respond.keys,struc_judge_respond.corr,struc_judge_respond.rt,dual_respond.keys,dual_respond.corr,dual_respond.rt,trials.thisRepN,trials.thisTrialN,trials.thisN,trials.thisIndex,trials.ran,stim1,stim2,isAnyChange,corrAns,selectBlock.thisRepN,selectBlock.thisTrialN,selectBlock.thisN,selectBlock.thisIndex,selectBlock.ran,condsFile,condsImage,remaining,connected,dimensionality
0,0,0,0,1,Instructions/consent.png,3,19,male,A,2020-05-13_15h33.49.827,Remembering_Displays,2020.1.2,Win32,60,,,,,,,,,,,,,,,,,,,,,,,,,
0,1,1,1,1,Instructions/instr_1.png,5,19,male,A,2020-05-13_15h33.49.827,Remembering_Displays,2020.1.2,Win32,60,,,,,,,,,,,,,,,,,,,,,,,,,
0,2,2,2,1,Instructions/instr_2.png,3,19,male,A,2020-05-13_15h33.49.827,Remembering_Displays,2020.1.2,Win32,60,,,,,,,,,,,,,,,,,,,,,,,,,
0,3,3,3,1,Instructions/instr_3.png,5,19,male,A,2020-05-13_15h33.49.827,Remembering_Displays,2020.1.2,Win32,60,,,,,,,,,,,,,,,,,,,,,,,,,
0,4,4,4,1,Instructions/instr_4.png,1,19,male,A,2020-05-13_15h33.49.827,Remembering_Displays,2020.1.2,Win32,60,,,,,,,,,,,,,,,,,,,,,,,,,
0,5,5,5,1,Instructions/instr_5.png,1,19,male,A,2020-05-13_15h33.49.827,Remembering_Displays,2020.1.2,Win32,60,,,,,,,,,,,,,,,,,,,,,,,,,
0,6,6,6,1,Instructions/instr_6.png,1,19,male,A,2020-05-13_15h33.49.827,Remembering_Displays,2020.1.2,Win32,60,,,,,,,,,,,,,,,,,,,,,,,,,
0,7,7,7,1,Instructions/instr_7.png,1,19,male,A,2020-05-13_15h33.49.827,Remembering_Displays,2020.1.2,Win32,60,,,,,,,,,,,,,,,,,,,,,,,,,
0,8,8,8,1,Instructions/instr_8.png,3,19,male,A,2020-05-13_15h33.49.827,Remembering_Displays,2020.1.2,Win32,60,,,,,,,,,,,,,,,,,,,,,,,,,
0,9,9,9,1,Instructions/instr_9.png,3,19,male,A,2020-05-13_15h33.49.827,Remembering_Displays,2020.1.2,Win32,60,,,,,,,,,,,,,,,,,,,,,,,,,
0,10,10,10,1,Instructions/instr_10.png,3,19,male,A,2020-05-13_15h33.49.827,Remembering_Displays,2020.1.2,Win32,60,,,,,,,,,,,,,,,,,,,,,,,,,
0,11,11,11,1,Instructions/instr_11.png,3,19,male,A,2020-05-13_15h33.49.827,Remembering_Displays,2020.1.2,Win32,60,,,,,,,,,,,,,,,,,,,,,,,,,
0,12,12,12,1,Instructions/instr_12.png,3,19,male,A,2020-05-13_15h33.49.827,Remembering_Displays,2020.1.2,Win32,60,,,,,,,,,,,,,,,,,,,,,,,,,
0,13,13,13,1,Instructions/instr_13.png,3,19,male,A,2020-05-13_15h33.49.827,Remembering_Displays,2020.1.2,Win32,60,,,,,,,,,,,,,,,,,,,,,,,,,
0,14,14,14,1,Instructions/instr_14.png,3,19,male,A,2020-05-13_15h33.49.827,Remembering_Displays,2020.1.2,Win32,60,,,,,,,,,,,,,,,,,,,,,,,,,
0,15,15,15,1,Instructions/instr_15.png,3,19,male,A,2020-05-13_15h33.49.827,Remembering_Displays,2020.1.2,Win32,60,,,,,,,,,,,,,,,,,,,,,,,,,
0,16,16,16,1,Instructions/instr_16.png,5,19,male,A,2020-05-13_15h33.49.827,Remembering_Displays,2020.1.2,Win32,60,,,,,,,,,,,,,,,,,,,,,,,,,
,,,,,,,19,male,A,2020-05-13_15h33.49.827,Remembering_Displays,2020.1.2,Win32,60,1,1,1.384995,1,0,10.065405,0,0,0,3,1,Stimuli/practiceStimuliSquare/practice4_s.png,Stimuli/practiceStimuliSquare/practice4_d.png,1,1,,,,,,,,,,
,,,,,,,19,male,A,2020-05-13_15h33.49.827,Remembering_Displays,2020.1.2,Win32,60,9,1,1.03066,9,1,1.00868,0,1,1,2,1,Stimuli/practiceStimuliSquare/practice3_s.png,Stimuli/practiceStimuliSquare/practice3_s.png,0,9,,,,,,,,,,
,,,,,,,19,male,A,2020-05-13_15h33.49.827,Remembering_Displays,2020.1.2,Win32,60,9,1,0.58667,1,1,0.66914,0,2,2,7,1,Stimuli/practiceStimuliSquare/practice4_s.png,Stimuli/practiceStimuliSquare/practice4_s.png,0,9,,,,,,,,,,
,,,,,,,19,male,A,2020-05-13_15h33.49.827,Remembering_Displays,2020.1.2,Win32,60,9,0,0.81677,1,1,1.988905,0,3,3,4,1,Stimuli/practiceStimuliSquare/practice1_s.png,Stimuli/practiceStimuliSquare/practice1_d.png,1,1,,,,,,,,,,
,,,,,,,19,male,A,2020-05-13_15h33.49.827,Remembering_Displays,2020.1.2,Win32,60,9,1,1.00899,1,1,0.99459,0,4,4,0,1,Stimuli/practiceStimuliSquare/practice1_s.png,Stimuli/practiceStimuliSquare/practice1_s.png,0,9,,,,,,,,,,
,,,,,,,19,male,A,2020-05-13_15h33.49.827,Remembering_Displays,2020.1.2,Win32,60,1,1,1.12446,1,1,1.09087,0,5,5,1,1,Stimuli/practiceStimuliSquare/practice2_s.png,Stimuli/practiceStimuliSquare/practice2_d.png,1,1,,,,,,,,,,
,,,,,,,19,male,A,2020-05-13_15h33.49.827,Remembering_Displays,2020.1.2,Win32,60,9,0,0.8712,1,1,0.849855,0,6,6,6,1,Stimuli/practiceStimuliSquare/practice3_s.png,Stimuli/practiceStimuliSquare/practice3_d.png,1,1,,,,,,,,,,
,,,,,,,19,male,A,2020-05-13_15h33.49.827,Remembering_Displays,2020.1.2,Win32,60,1,0,0.610385,1,1,1.07957,0,7,7,5,1,Stimuli/practiceStimuliSquare/practice2_s.png,Stimuli/practiceStimuliSquare/practice2_s.png,0,9,,,,,,,,,,
,,,,,,,19,male,A,2020-05-13_15h33.49.827,Remembering_Displays,2020.1.2,Win32,60,,,,,,,,,,,,,,,,0,0,0,0,1,Stimuli/practiceListSquares.xlsx,Instructions/instr_practice_A.png,Practice trials completed,,
,,,,,,,19,male,A,2020-05-13_15h33.49.827,Remembering_Displays,2020.1.2,Win32,60,9,1,0.992665,9,1,0.729095,0,0,0,18,1,Stimuli/testStimuliSquare/6u_s_4_s_2D.png,Stimuli/testStimuliSquare/6u_s_4_s_2D.png,0,9,,,,,,,,,s,2D
,,,,,,,19,male,A,2020-05-13_15h33.49.827,Remembering_Displays,2020.1.2,Win32,60,9,1,1.027015,1,1,0.700485,0,1,1,20,1,Stimuli/testStimuliSquare/6u_s_5_s_2D.png,Stimuli/testStimuliSquare/6u_s_5_s_2D.png,0,9,,,,,,,,,s,2D
,,,,,,,19,male,A,2020-05-13_15h33.49.827,Remembering_Displays,2020.1.2,Win32,60,9,1,1.07521,9,1,1.343395,0,2,2,10,1,Stimuli/testStimuliSquare/6u_s_6_2D.png,Stimuli/testStimuliSquare/6u_s_6_2D.png,0,9,,,,,,,,,c,2D
,,,,,,,19,male,A,2020-05-13_15h33.49.827,Remembering_Displays,2020.1.2,Win32,60,1,1,1.204215,1,1,1.301745,0,3,3,11,1,Stimuli/testStimuliSquare/6u_s_6_2D.png,Stimuli/testStimuliSquare/6u_d_6_2D.png,1,1,,,,,,,,,c,2D
,,,,,,,19,male,A,2020-05-13_15h33.49.827,Remembering_Displays,2020.1.2,Win32,60,9,0,1.27255,1,0,0.97404,0,4,4,3,1,Stimuli/testStimuliSquare/6u_s_2_2D.png,Stimuli/testStimuliSquare/6u_d_2_2D.png,1,1,,,,,,,,,c,2D
,,,,,,,19,male,A,2020-05-13_15h33.49.827,Remembering_Displays,2020.1.2,Win32,60,9,0,1.13706,1,1,1.2947,0,5,5,15,1,Stimuli/testStimuliSquare/6u_s_2_s_2D.png,Stimuli/testStimuliSquare/6u_d_2_s_2D.png,1,1,,,,,,,,,s,2D
,,,,,,,19,male,A,2020-05-13_15h33.49.827,Remembering_Displays,2020.1.2,Win32,60,,0,,9,1,1.3903,0,6,6,22,1,Stimuli/testStimuliSquare/6u_s_6_s_2D.png,Stimuli/testStimuliSquare/6u_s_6_s_2D.png,0,9,,,,,,,,,s,2D
,,,,,,,19,male,A,2020-05-13_15h33.49.827,Remembering_Displays,2020.1.2,Win32,60,1,1,0.78662,1,0,0.61323,0,7,7,5,1,Stimuli/testStimuliSquare/6u_s_3_2D.png,Stimuli/testStimuliSquare/6u_d_3_2D.png,1,1,,,,,,,,,c,2D
,,,,,,,19,male,A,2020-05-13_15h33.49.827,Remembering_Displays,2020.1.2,Win32,60,9,0,0.822415,1,0,0.620935,0,8,8,23,1,Stimuli/testStimuliSquare/6u_s_6_s_2D.png,Stimuli/testStimuliSquare/6u_d_6_s_2D.png,1,1,,,,,,,,,s,2D
,,,,,,,19,male,A,2020-05-13_15h33.49.827,Remembering_Displays,2020.1.2,Win32,60,1,1,1.235445,9,1,1.157185,0,9,9,1,1,Stimuli/testStimuliSquare/6u_s_1_2D.png,Stimuli/testStimuliSquare/6u_d_1_2D.png,1,1,,,,,,,,,c,2D
,,,,,,,19,male,A,2020-05-13_15h33.49.827,Remembering_Displays,2020.1.2,Win32,60,1,1,1.271765,9,1,0.74326,0,10,10,13,1,Stimuli/testStimuliSquare/6u_s_1_s_2D.png,Stimuli/testStimuliSquare/6u_d_1_s_2D.png,1,1,,,,,,,,,s,2D
,,,,,,,19,male,A,2020-05-13_15h33.49.827,Remembering_Displays,2020.1.2,Win32,60,9,1,1.082665,1,1,0.95008,0,11,11,16,1,Stimuli/testStimuliSquare/6u_s_3_s_2D.png,Stimuli/testStimuliSquare/6u_s_3_s_2D.png,0,9,,,,,,,,,s,2D
,,,,,,,19,male,A,2020-05-13_15h33.49.827,Remembering_Displays,2020.1.2,Win32,60,9,1,0.9591,9,1,0.7005,0,12,12,2,1,Stimuli/testStimuliSquare/6u_s_2_2D.png,Stimuli/testStimuliSquare/6u_s_2_2D.png,0,9,,,,,,,,,c,2D
,,,,,,,19,male,A,2020-05-13_15h33.49.827,Remembering_Displays,2020.1.2,Win32,60,9,1,0.659685,1,1,0.444705,0,13,13,6,1,Stimuli/testStimuliSquare/6u_s_4_2D.png,Stimuli/testStimuliSquare/6u_s_4_2D.png,0,9,,,,,,,,,c,2D
,,,,,,,19,male,A,2020-05-13_15h33.49.827,Remembering_Displays,2020.1.2,Win32,60,9,1,0.605955,9,1,0.8697,0,14,14,4,1,Stimuli/testStimuliSquare/6u_s_3_2D.png,Stimuli/testStimuliSquare/6u_s_3_2D.png,0,9,,,,,,,,,c,2D
,,,,,,,19,male,A,2020-05-13_15h33.49.827,Remembering_Displays,2020.1.2,Win32,60,1,1,0.88397,9,1,0.55051,0,15,15,21,1,Stimuli/testStimuliSquare/6u_s_5_s_2D.png,Stimuli/testStimuliSquare/6u_d_5_s_2D.png,1,1,,,,,,,,,s,2D
,,,,,,,19,male,A,2020-05-13_15h33.49.827,Remembering_Displays,2020.1.2,Win32,60,9,1,0.64221,1,1,0.76008,0,16,16,14,1,Stimuli/testStimuliSquare/6u_s_2_s_2D.png,Stimuli/testStimuliSquare/6u_s_2_s_2D.png,0,9,,,,,,,,,s,2D
,,,,,,,19,male,A,2020-05-13_15h33.49.827,Remembering_Displays,2020.1.2,Win32,60,1,1,1.006125,9,1,0.7776,0,17,17,7,1,Stimuli/testStimuliSquare/6u_s_4_2D.png,Stimuli/testStimuliSquare/6u_d_4_2D.png,1,1,,,,,,,,,c,2D
,,,,,,,19,male,A,2020-05-13_15h33.49.827,Remembering_Displays,2020.1.2,Win32,60,1,1,1.06157,1,1,0.73747,0,18,18,9,1,Stimuli/testStimuliSquare/6u_s_5_2D.png,Stimuli/testStimuliSquare/6u_d_5_2D.png,1,1,,,,,,,,,c,2D
,,,,,,,19,male,A,2020-05-13_15h33.49.827,Remembering_Displays,2020.1.2,Win32,60,9,1,0.70919,1,1,0.562335,0,19,19,8,1,Stimuli/testStimuliSquare/6u_s_5_2D.png,Stimuli/testStimuliSquare/6u_s_5_2D.png,0,9,,,,,,,,,c,2D
,,,,,,,19,male,A,2020-05-13_15h33.49.827,Remembering_Displays,2020.1.2,Win32,60,9,0,0.72621,1,1,0.602125,0,20,20,19,1,Stimuli/testStimuliSquare/6u_s_4_s_2D.png,Stimuli/testStimuliSquare/6u_d_4_s_2D.png,1,1,,,,,,,,,s,2D
,,,,,,,19,male,A,2020-05-13_15h33.49.827,Remembering_Displays,2020.1.2,Win32,60,9,1,1.017045,1,0,0.60523,0,21,21,0,1,Stimuli/testStimuliSquare/6u_s_1_2D.png,Stimuli/testStimuliSquare/6u_s_1_2D.png,0,9,,,,,,,,,c,2D
,,,,,,,19,male,A,2020-05-13_15h33.49.827,Remembering_Displays,2020.1.2,Win32,60,1,1,0.87966,1,1,1.169225,0,22,22,17,1,Stimuli/testStimuliSquare/6u_s_3_s_2D.png,Stimuli/testStimuliSquare/6u_d_3_s_2D.png,1,1,,,,,,,,,s,2D
,,,,,,,19,male,A,2020-05-13_15h33.49.827,Remembering_Displays,2020.1.2,Win32,60,9,1,0.84183,9,1,0.834005,0,23,23,12,1,Stimuli/testStimuliSquare/6u_s_1_s_2D.png,Stimuli/testStimuliSquare/6u_s_1_s_2D.png,0,9,,,,,,,,,s,2D
,,,,,,,19,male,A,2020-05-13_15h33.49.827,Remembering_Displays,2020.1.2,Win32,60,,,,,,,,,,,,,,,,0,1,1,1,1,Stimuli/trialListSquares1.xlsx,Instructions/instr_18.png,Progress: 24 of 192 trials completed,,
,,,,,,,19,male,A,2020-05-13_15h33.49.827,Remembering_Displays,2020.1.2,Win32,60,9,1,0.960155,1,1,1.304075,0,0,0,2,1,Stimuli/practiceStimuliCube/practice3_s.png,Stimuli/practiceStimuliCube/practice3_s.png,0,9,,,,,,,,,,
,,,,,,,19,male,A,2020-05-13_15h33.49.827,Remembering_Displays,2020.1.2,Win32,60,9,1,0.696175,1,1,0.83609,0,1,1,5,1,Stimuli/practiceStimuliCube/practice2_s.png,Stimuli/practiceStimuliCube/practice2_s.png,0,9,,,,,,,,,,
,,,,,,,19,male,A,2020-05-13_15h33.49.827,Remembering_Displays,2020.1.2,Win32,60,1,1,0.457595,1,1,0.72396,0,2,2,1,1,Stimuli/practiceStimuliCube/practice2_s.png,Stimuli/practiceStimuliCube/practice2_d.png,1,1,,,,,,,,,,
,,,,,,,19,male,A,2020-05-13_15h33.49.827,Remembering_Displays,2020.1.2,Win32,60,9,0,0.816645,9,1,1.04355,0,3,3,4,1,Stimuli/practiceStimuliCube/practice1_s.png,Stimuli/practiceStimuliCube/practice1_d.png,1,1,,,,,,,,,,
,,,,,,,19,male,A,2020-05-13_15h33.49.827,Remembering_Displays,2020.1.2,Win32,60,9,1,1.314325,1,1,0.47424,0,4,4,7,1,Stimuli/practiceStimuliCube/practice4_s.png,Stimuli/practiceStimuliCube/practice4_s.png,0,9,,,,,,,,,,
,,,,,,,19,male,A,2020-05-13_15h33.49.827,Remembering_Displays,2020.1.2,Win32,60,9,0,1.164645,1,0,1.4498,0,5,5,3,1,Stimuli/practiceStimuliCube/practice4_s.png,Stimuli/practiceStimuliCube/practice4_d.png,1,1,,,,,,,,,,
,,,,,,,19,male,A,2020-05-13_15h33.49.827,Remembering_Displays,2020.1.2,Win32,60,1,1,1.32043,1,0,0.83481,0,6,6,6,1,Stimuli/practiceStimuliCube/practice3_s.png,Stimuli/practiceStimuliCube/practice3_d.png,1,1,,,,,,,,,,
,,,,,,,19,male,A,2020-05-13_15h33.49.827,Remembering_Displays,2020.1.2,Win32,60,9,1,0.93271,1,0,0.885405,0,7,7,0,1,Stimuli/practiceStimuliCube/practice1_s.png,Stimuli/practiceStimuliCube/practice1_s.png,0,9,,,,,,,,,,
,,,,,,,19,male,A,2020-05-13_15h33.49.827,Remembering_Displays,2020.1.2,Win32,60,,,,,,,,,,,,,,,,0,2,2,2,1,Stimuli/practiceListCubes.xlsx,Instructions/instr_practice_B.png,Practice trials completed,,
,,,,,,,19,male,A,2020-05-13_15h33.49.827,Remembering_Displays,2020.1.2,Win32,60,1,0,0.95821,1,1,0.917095,0,0,0,8,1,Stimuli/testStimuliCube/6u_s_23.png,Stimuli/testStimuliCube/6u_s_23.png,0,9,,,,,,,,,c,3D
,,,,,,,19,male,A,2020-05-13_15h33.49.827,Remembering_Displays,2020.1.2,Win32,60,9,0,0.84215,1,1,1.39164,0,1,1,9,1,Stimuli/testStimuliCube/6u_s_23.png,Stimuli/testStimuliCube/6u_d_23.png,1,1,,,,,,,,,c,3D
,,,,,,,19,male,A,2020-05-13_15h33.49.827,Remembering_Displays,2020.1.2,Win32,60,1,1,1.118565,1,1,1.338975,0,2,2,19,1,Stimuli/testStimuliCube/6u_s_22_s.png,Stimuli/testStimuliCube/6u_d_22_s.png,1,1,,,,,,,,,s,3D
,,,,,,,19,male,A,2020-05-13_15h33.49.827,Remembering_Displays,2020.1.2,Win32,60,1,1,1.04095,1,0,0.770295,0,3,3,3,1,Stimuli/testStimuliCube/6u_s_20.png,Stimuli/testStimuliCube/6u_d_20.png,1,1,,,,,,,,,c,3D
,,,,,,,19,male,A,2020-05-13_15h33.49.827,Remembering_Displays,2020.1.2,Win32,60,1,1,1.02627,9,1,0.79298,0,4,4,7,1,Stimuli/testStimuliCube/6u_s_22.png,Stimuli/testStimuliCube/6u_d_22.png,1,1,,,,,,,,,c,3D
,,,,,,,19,male,A,2020-05-13_15h33.49.827,Remembering_Displays,2020.1.2,Win32,60,1,0,0.841055,1,1,0.96371,0,5,5,18,1,Stimuli/testStimuliCube/6u_s_22_s.png,Stimuli/testStimuliCube/6u_s_22_s.png,0,9,,,,,,,,,s,3D
,,,,,,,19,male,A,2020-05-13_15h33.49.827,Remembering_Displays,2020.1.2,Win32,60,1,1,0.970385,1,1,1.77698,0,6,6,5,1,Stimuli/testStimuliCube/6u_s_21.png,Stimuli/testStimuliCube/6u_d_21.png,1,1,,,,,,,,,c,3D
,,,,,,,19,male,A,2020-05-13_15h33.49.827,Remembering_Displays,2020.1.2,Win32,60,9,1,0.981075,9,1,0.704625,0,7,7,4,1,Stimuli/testStimuliCube/6u_s_21.png,Stimuli/testStimuliCube/6u_s_21.png,0,9,,,,,,,,,c,3D
,,,,,,,19,male,A,2020-05-13_15h33.49.827,Remembering_Displays,2020.1.2,Win32,60,9,1,0.761205,1,1,0.59152,0,8,8,14,1,Stimuli/testStimuliCube/6u_s_20_s.png,Stimuli/testStimuliCube/6u_s_20_s.png,0,9,,,,,,,,,s,3D
,,,,,,,19,male,A,2020-05-13_15h33.49.827,Remembering_Displays,2020.1.2,Win32,60,1,1,0.684785,1,1,1.307165,0,9,9,17,1,Stimuli/testStimuliCube/6u_s_21_s.png,Stimuli/testStimuliCube/6u_d_21_s.png,1,1,,,,,,,,,s,3D
,,,,,,,19,male,A,2020-05-13_15h33.49.827,Remembering_Displays,2020.1.2,Win32,60,1,0,0.82569,1,1,0.77649,0,10,10,16,1,Stimuli/testStimuliCube/6u_s_21_s.png,Stimuli/testStimuliCube/6u_s_21_s.png,0,9,,,,,,,,,s,3D
,,,,,,,19,male,A,2020-05-13_15h33.49.827,Remembering_Displays,2020.1.2,Win32,60,9,1,1.0283,1,1,0.53381,0,11,11,10,1,Stimuli/testStimuliCube/6u_s_24.png,Stimuli/testStimuliCube/6u_s_24.png,0,9,,,,,,,,,c,3D
,,,,,,,19,male,A,2020-05-13_15h33.49.827,Remembering_Displays,2020.1.2,Win32,60,9,1,0.832845,9,1,0.91039,0,12,12,20,1,Stimuli/testStimuliCube/6u_s_23_s.png,Stimuli/testStimuliCube/6u_s_23_s.png,0,9,,,,,,,,,s,3D
,,,,,,,19,male,A,2020-05-13_15h33.49.827,Remembering_Displays,2020.1.2,Win32,60,1,0,0.977435,1,1,1.00955,0,13,13,0,1,Stimuli/testStimuliCube/6u_s_19.png,Stimuli/testStimuliCube/6u_s_19.png,0,9,,,,,,,,,c,3D
,,,,,,,19,male,A,2020-05-13_15h33.49.827,Remembering_Displays,2020.1.2,Win32,60,9,1,0.561145,1,1,0.590355,0,14,14,22,1,Stimuli/testStimuliCube/6u_s_24_s.png,Stimuli/testStimuliCube/6u_s_24_s.png,0,9,,,,,,,,,s,3D
,,,,,,,19,male,A,2020-05-13_15h33.49.827,Remembering_Displays,2020.1.2,Win32,60,1,1,0.618735,1,1,1.266375,0,15,15,1,1,Stimuli/testStimuliCube/6u_s_19.png,Stimuli/testStimuliCube/6u_d_19.png,1,1,,,,,,,,,c,3D
,,,,,,,19,male,A,2020-05-13_15h33.49.827,Remembering_Displays,2020.1.2,Win32,60,9,0,0.9888,1,1,1.34997,0,16,16,21,1,Stimuli/testStimuliCube/6u_s_23_s.png,Stimuli/testStimuliCube/6u_d_23_s.png,1,1,,,,,,,,,s,3D
,,,,,,,19,male,A,2020-05-13_15h33.49.827,Remembering_Displays,2020.1.2,Win32,60,1,1,1.07483,9,1,0.767065,0,17,17,15,1,Stimuli/testStimuliCube/6u_s_20_s.png,Stimuli/testStimuliCube/6u_d_20_s.png,1,1,,,,,,,,,s,3D
,,,,,,,19,male,A,2020-05-13_15h33.49.827,Remembering_Displays,2020.1.2,Win32,60,9,1,0.651655,9,1,0.7858,0,18,18,12,1,Stimuli/testStimuliCube/6u_s_19_s.png,Stimuli/testStimuliCube/6u_s_19_s.png,0,9,,,,,,,,,s,3D
,,,,,,,19,male,A,2020-05-13_15h33.49.827,Remembering_Displays,2020.1.2,Win32,60,9,0,0.753595,1,1,0.535305,0,19,19,13,1,Stimuli/testStimuliCube/6u_s_19_s.png,Stimuli/testStimuliCube/6u_d_19_s.png,1,1,,,,,,,,,s,3D
,,,,,,,19,male,A,2020-05-13_15h33.49.827,Remembering_Displays,2020.1.2,Win32,60,1,1,0.938245,9,1,0.98942,0,20,20,23,1,Stimuli/testStimuliCube/6u_s_24_s.png,Stimuli/testStimuliCube/6u_d_24_s.png,1,1,,,,,,,,,s,3D
,,,,,,,19,male,A,2020-05-13_15h33.49.827,Remembering_Displays,2020.1.2,Win32,60,9,1,0.99164,1,1,1.10527,0,21,21,2,1,Stimuli/testStimuliCube/6u_s_20.png,Stimuli/testStimuliCube/6u_s_20.png,0,9,,,,,,,,,c,3D
,,,,,,,19,male,A,2020-05-13_15h33.49.827,Remembering_Displays,2020.1.2,Win32,60,9,1,0.888635,1,0,0.873825,0,22,22,6,1,Stimuli/testStimuliCube/6u_s_22.png,Stimuli/testStimuliCube/6u_s_22.png,0,9,,,,,,,,,c,3D
,,,,,,,19,male,A,2020-05-13_15h33.49.827,Remembering_Displays,2020.1.2,Win32,60,1,1,1.00642,9,1,0.741235,0,23,23,11,1,Stimuli/testStimuliCube/6u_s_24.png,Stimuli/testStimuliCube/6u_d_24.png,1,1,,,,,,,,,c,3D
,,,,,,,19,male,A,2020-05-13_15h33.49.827,Remembering_Displays,2020.1.2,Win32,60,,,,,,,,,,,,,,,,0,3,3,3,1,Stimuli/trialListCubes4.xlsx,Instructions/instr_19.png,Progress: 48 of 192 trials completed,,
,,,,,,,19,male,A,2020-05-13_15h33.49.827,Remembering_Displays,2020.1.2,Win32,60,9,1,0.825495,1,1,0.81301,0,0,0,2,1,Stimuli/testStimuliSquare/6u_s_8_2D.png,Stimuli/testStimuliSquare/6u_s_8_2D.png,0,9,,,,,,,,,c,2D
,,,,,,,19,male,A,2020-05-13_15h33.49.827,Remembering_Displays,2020.1.2,Win32,60,1,1,1.10969,1,1,0.835785,0,1,1,9,1,Stimuli/testStimuliSquare/6u_s_11_2D.png,Stimuli/testStimuliSquare/6u_d_11_2D.png,1,1,,,,,,,,,c,2D
,,,,,,,19,male,A,2020-05-13_15h33.49.827,Remembering_Displays,2020.1.2,Win32,60,9,1,0.89116,9,1,0.661745,0,2,2,18,1,Stimuli/testStimuliSquare/6u_s_10_s_2D.png,Stimuli/testStimuliSquare/6u_s_10_s_2D.png,0,9,,,,,,,,,s,2D
,,,,,,,19,male,A,2020-05-13_15h33.49.827,Remembering_Displays,2020.1.2,Win32,60,1,1,0.765445,9,1,1.157015,0,3,3,3,1,Stimuli/testStimuliSquare/6u_s_8_2D.png,Stimuli/testStimuliSquare/6u_d_8_2D.png,1,1,,,,,,,,,c,2D
,,,,,,,19,male,A,2020-05-13_15h33.49.827,Remembering_Displays,2020.1.2,Win32,60,1,1,1.090035,9,1,1.070185,0,4,4,15,1,Stimuli/testStimuliSquare/6u_s_8_s_2D.png,Stimuli/testStimuliSquare/6u_d_8_s_2D.png,1,1,,,,,,,,,s,2D
,,,,,,,19,male,A,2020-05-13_15h33.49.827,Remembering_Displays,2020.1.2,Win32,60,1,1,0.7355,9,1,0.49208,0,5,5,21,1,Stimuli/testStimuliSquare/6u_s_11_s_2D.png,Stimuli/testStimuliSquare/6u_d_11_s_2D.png,1,1,,,,,,,,,s,2D
,,,,,,,19,male,A,2020-05-13_15h33.49.827,Remembering_Displays,2020.1.2,Win32,60,9,1,0.734125,1,1,0.851475,0,6,6,22,1,Stimuli/testStimuliSquare/6u_s_12_s_2D.png,Stimuli/testStimuliSquare/6u_s_12_s_2D.png,0,9,,,,,,,,,s,2D
,,,,,,,19,male,A,2020-05-13_15h33.49.827,Remembering_Displays,2020.1.2,Win32,60,9,0,1.142245,9,1,0.652195,0,7,7,23,1,Stimuli/testStimuliSquare/6u_s_12_s_2D.png,Stimuli/testStimuliSquare/6u_d_12_s_2D.png,1,1,,,,,,,,,s,2D
,,,,,,,19,male,A,2020-05-13_15h33.49.827,Remembering_Displays,2020.1.2,Win32,60,9,1,0.808595,9,1,1.083745,0,8,8,0,1,Stimuli/testStimuliSquare/6u_s_7_2D.png,Stimuli/testStimuliSquare/6u_s_7_2D.png,0,9,,,,,,,,,c,2D
,,,,,,,19,male,A,2020-05-13_15h33.49.827,Remembering_Displays,2020.1.2,Win32,60,9,0,0.722015,1,1,0.742715,0,9,9,5,1,Stimuli/testStimuliSquare/6u_s_9_2D.png,Stimuli/testStimuliSquare/6u_d_9_2D.png,1,1,,,,,,,,,c,2D
,,,,,,,19,male,A,2020-05-13_15h33.49.827,Remembering_Displays,2020.1.2,Win32,60,9,1,0.6289,9,1,1.04677,0,10,10,16,1,Stimuli/testStimuliSquare/6u_s_9_s_2D.png,Stimuli/testStimuliSquare/6u_s_9_s_2D.png,0,9,,,,,,,,,s,2D
,,,,,,,19,male,A,2020-05-13_15h33.49.827,Remembering_Displays,2020.1.2,Win32,60,1,1,1.06186,1,1,1.23462,0,11,11,7,1,Stimuli/testStimuliSquare/6u_s_10_2D.png,Stimuli/testStimuliSquare/6u_d_10_2D.png,1,1,,,,,,,,,c,2D
,,,,,,,19,male,A,2020-05-13_15h33.49.827,Remembering_Displays,2020.1.2,Win32,60,1,1,1.02048,1,1,1.34971,0,12,12,11,1,Stimuli/testStimuliSquare/6u_s_12_2D.png,Stimuli/testStimuliSquare/6u_d_12_2D.png,1,1,,,,,,,,,c,2D
,,,,,,,19,male,A,2020-05-13_15h33.49.827,Remembering_Displays,2020.1.2,Win32,60,1,1,1.03683,1,1,3.33658,0,13,13,1,1,Stimuli/testStimuliSquare/6u_s_7_2D.png,Stimuli/testStimuliSquare/6u_d_7_2D.png,1,1,,,,,,,,,c,2D
,,,,,,,19,male,A,2020-05-13_15h33.49.827,Remembering_Displays,2020.1.2,Win32,60,1,0,1.332385,9,1,1.083085,0,14,14,8,1,Stimuli/testStimuliSquare/6u_s_11_2D.png,Stimuli/testStimuliSquare/6u_s_11_2D.png,0,9,,,,,,,,,c,2D
,,,,,,,19,male,A,2020-05-13_15h33.49.827,Remembering_Displays,2020.1.2,Win32,60,1,1,0.76713,1,1,0.951805,0,15,15,13,1,Stimuli/testStimuliSquare/6u_s_7_s_2D.png,Stimuli/testStimuliSquare/6u_d_7_s_2D.png,1,1,,,,,,,,,s,2D
,,,,,,,19,male,A,2020-05-13_15h33.49.827,Remembering_Displays,2020.1.2,Win32,60,9,0,1.04915,1,1,0.610335,0,16,16,17,1,Stimuli/testStimuliSquare/6u_s_9_s_2D.png,Stimuli/testStimuliSquare/6u_d_9_s_2D.png,1,1,,,,,,,,,s,2D
,,,,,,,19,male,A,2020-05-13_15h33.49.827,Remembering_Displays,2020.1.2,Win32,60,9,1,1.102235,1,1,1.2206,0,17,17,10,1,Stimuli/testStimuliSquare/6u_s_12_2D.png,Stimuli/testStimuliSquare/6u_s_12_2D.png,0,9,,,,,,,,,c,2D
,,,,,,,19,male,A,2020-05-13_15h33.49.827,Remembering_Displays,2020.1.2,Win32,60,9,1,0.91529,1,1,0.98902,0,18,18,12,1,Stimuli/testStimuliSquare/6u_s_7_s_2D.png,Stimuli/testStimuliSquare/6u_s_7_s_2D.png,0,9,,,,,,,,,s,2D
,,,,,,,19,male,A,2020-05-13_15h33.49.827,Remembering_Displays,2020.1.2,Win32,60,9,1,0.79574,1,1,1.197315,0,19,19,6,1,Stimuli/testStimuliSquare/6u_s_10_2D.png,Stimuli/testStimuliSquare/6u_s_10_2D.png,0,9,,,,,,,,,c,2D
,,,,,,,19,male,A,2020-05-13_15h33.49.827,Remembering_Displays,2020.1.2,Win32,60,9,1,0.921965,1,1,1.244575,0,20,20,14,1,Stimuli/testStimuliSquare/6u_s_8_s_2D.png,Stimuli/testStimuliSquare/6u_s_8_s_2D.png,0,9,,,,,,,,,s,2D
,,,,,,,19,male,A,2020-05-13_15h33.49.827,Remembering_Displays,2020.1.2,Win32,60,1,1,0.779055,9,1,1.24204,0,21,21,19,1,Stimuli/testStimuliSquare/6u_s_10_s_2D.png,Stimuli/testStimuliSquare/6u_d_10_s_2D.png,1,1,,,,,,,,,s,2D
,,,,,,,19,male,A,2020-05-13_15h33.49.827,Remembering_Displays,2020.1.2,Win32,60,9,1,0.761585,1,1,0.58439,0,22,22,20,1,Stimuli/testStimuliSquare/6u_s_11_s_2D.png,Stimuli/testStimuliSquare/6u_s_11_s_2D.png,0,9,,,,,,,,,s,2D
,,,,,,,19,male,A,2020-05-13_15h33.49.827,Remembering_Displays,2020.1.2,Win32,60,9,1,0.66115,1,1,0.783495,0,23,23,4,1,Stimuli/testStimuliSquare/6u_s_9_2D.png,Stimuli/testStimuliSquare/6u_s_9_2D.png,0,9,,,,,,,,,c,2D
,,,,,,,19,male,A,2020-05-13_15h33.49.827,Remembering_Displays,2020.1.2,Win32,60,,,,,,,,,,,,,,,,0,4,4,4,1,Stimuli/trialListSquares2.xlsx,Instructions/instr_18.png,Progress: 72 of 192 trials completed,,
,,,,,,,19,male,A,2020-05-13_15h33.49.827,Remembering_Displays,2020.1.2,Win32,60,9,0,0.661655,9,1,0.991605,0,0,0,23,1,Stimuli/testStimuliCube/6u_s_18_s.png,Stimuli/testStimuliCube/6u_d_18_s.png,1,1,,,,,,,,,s,3D
,,,,,,,19,male,A,2020-05-13_15h33.49.827,Remembering_Displays,2020.1.2,Win32,60,9,1,0.705535,1,1,1.434585,0,1,1,16,1,Stimuli/testStimuliCube/6u_s_15_s.png,Stimuli/testStimuliCube/6u_s_15_s.png,0,9,,,,,,,,,s,3D
,,,,,,,19,male,A,2020-05-13_15h33.49.827,Remembering_Displays,2020.1.2,Win32,60,9,1,0.527495,1,0,2.35991,0,2,2,18,1,Stimuli/testStimuliCube/6u_s_16_s.png,Stimuli/testStimuliCube/6u_s_16_s.png,0,9,,,,,,,,,s,3D
,,,,,,,19,male,A,2020-05-13_15h33.49.827,Remembering_Displays,2020.1.2,Win32,60,1,1,0.79091,9,1,0.55592,0,3,3,3,1,Stimuli/testStimuliCube/6u_s_14.png,Stimuli/testStimuliCube/6u_d_14.png,1,1,,,,,,,,,c,3D
,,,,,,,19,male,A,2020-05-13_15h33.49.827,Remembering_Displays,2020.1.2,Win32,60,1,1,0.92925,9,1,0.71733,0,4,4,15,1,Stimuli/testStimuliCube/6u_s_14_s.png,Stimuli/testStimuliCube/6u_d_14_s.png,1,1,,,,,,,,,s,3D
,,,,,,,19,male,A,2020-05-13_15h33.49.827,Remembering_Displays,2020.1.2,Win32,60,9,1,0.602255,1,1,0.55587,0,5,5,10,1,Stimuli/testStimuliCube/6u_s_18.png,Stimuli/testStimuliCube/6u_s_18.png,0,9,,,,,,,,,c,3D
,,,,,,,19,male,A,2020-05-13_15h33.49.827,Remembering_Displays,2020.1.2,Win32,60,9,0,0.54071,1,1,0.88491,0,6,6,13,1,Stimuli/testStimuliCube/6u_s_13_s.png,Stimuli/testStimuliCube/6u_d_13_s.png,1,1,,,,,,,,,s,3D
,,,,,,,19,male,A,2020-05-13_15h33.49.827,Remembering_Displays,2020.1.2,Win32,60,1,1,0.85652,1,1,1.29237,0,7,7,19,1,Stimuli/testStimuliCube/6u_s_16_s.png,Stimuli/testStimuliCube/6u_d_16_s.png,1,1,,,,,,,,,s,3D
,,,,,,,19,male,A,2020-05-13_15h33.49.827,Remembering_Displays,2020.1.2,Win32,60,1,1,1.17984,9,1,0.971355,0,8,8,9,1,Stimuli/testStimuliCube/6u_s_17.png,Stimuli/testStimuliCube/6u_d_17.png,1,1,,,,,,,,,c,3D
,,,,,,,19,male,A,2020-05-13_15h33.49.827,Remembering_Displays,2020.1.2,Win32,60,9,1,1.03407,9,1,0.61188,0,9,9,0,1,Stimuli/testStimuliCube/6u_s_13.png,Stimuli/testStimuliCube/6u_s_13.png,0,9,,,,,,,,,c,3D
,,,,,,,19,male,A,2020-05-13_15h33.49.827,Remembering_Displays,2020.1.2,Win32,60,1,1,0.63825,1,1,0.722225,0,10,10,5,1,Stimuli/testStimuliCube/6u_s_15.png,Stimuli/testStimuliCube/6u_d_15.png,1,1,,,,,,,,,c,3D
,,,,,,,19,male,A,2020-05-13_15h33.49.827,Remembering_Displays,2020.1.2,Win32,60,1,1,0.759315,1,1,0.88369,0,11,11,21,1,Stimuli/testStimuliCube/6u_s_17_s.png,Stimuli/testStimuliCube/6u_d_17_s.png,1,1,,,,,,,,,s,3D
,,,,,,,19,male,A,2020-05-13_15h33.49.827,Remembering_Displays,2020.1.2,Win32,60,9,1,0.812975,1,1,0.475035,0,12,12,20,1,Stimuli/testStimuliCube/6u_s_17_s.png,Stimuli/testStimuliCube/6u_s_17_s.png,0,9,,,,,,,,,s,3D
,,,,,,,19,male,A,2020-05-13_15h33.49.827,Remembering_Displays,2020.1.2,Win32,60,9,1,0.89212,9,1,0.62399,0,13,13,2,1,Stimuli/testStimuliCube/6u_s_14.png,Stimuli/testStimuliCube/6u_s_14.png,0,9,,,,,,,,,c,3D
,,,,,,,19,male,A,2020-05-13_15h33.49.827,Remembering_Displays,2020.1.2,Win32,60,9,1,0.908235,1,1,0.78011,0,14,14,4,1,Stimuli/testStimuliCube/6u_s_15.png,Stimuli/testStimuliCube/6u_s_15.png,0,9,,,,,,,,,c,3D
,,,,,,,19,male,A,2020-05-13_15h33.49.827,Remembering_Displays,2020.1.2,Win32,60,1,1,0.64505,1,1,0.79115,0,15,15,1,1,Stimuli/testStimuliCube/6u_s_13.png,Stimuli/testStimuliCube/6u_d_13.png,1,1,,,,,,,,,c,3D
,,,,,,,19,male,A,2020-05-13_15h33.49.827,Remembering_Displays,2020.1.2,Win32,60,9,1,0.70475,1,1,0.66185,0,16,16,22,1,Stimuli/testStimuliCube/6u_s_18_s.png,Stimuli/testStimuliCube/6u_s_18_s.png,0,9,,,,,,,,,s,3D
,,,,,,,19,male,A,2020-05-13_15h33.49.827,Remembering_Displays,2020.1.2,Win32,60,1,1,0.60406,9,1,1.185135,0,17,17,17,1,Stimuli/testStimuliCube/6u_s_15_s.png,Stimuli/testStimuliCube/6u_d_15_s.png,1,1,,,,,,,,,s,3D
,,,,,,,19,male,A,2020-05-13_15h33.49.827,Remembering_Displays,2020.1.2,Win32,60,9,1,0.804745,9,1,1.90862,0,18,18,8,1,Stimuli/testStimuliCube/6u_s_17.png,Stimuli/testStimuliCube/6u_s_17.png,0,9,,,,,,,,,c,3D
,,,,,,,19,male,A,2020-05-13_15h33.49.827,Remembering_Displays,2020.1.2,Win32,60,9,0,0.730245,1,1,1.074415,0,19,19,7,1,Stimuli/testStimuliCube/6u_s_16.png,Stimuli/testStimuliCube/6u_d_16.png,1,1,,,,,,,,,c,3D
,,,,,,,19,male,A,2020-05-13_15h33.49.827,Remembering_Displays,2020.1.2,Win32,60,9,1,0.52013,1,1,0.729375,0,20,20,6,1,Stimuli/testStimuliCube/6u_s_16.png,Stimuli/testStimuliCube/6u_s_16.png,0,9,,,,,,,,,c,3D
,,,,,,,19,male,A,2020-05-13_15h33.49.827,Remembering_Displays,2020.1.2,Win32,60,9,1,0.696215,9,1,0.550605,0,21,21,12,1,Stimuli/testStimuliCube/6u_s_13_s.png,Stimuli/testStimuliCube/6u_s_13_s.png,0,9,,,,,,,,,s,3D
,,,,,,,19,male,A,2020-05-13_15h33.49.827,Remembering_Displays,2020.1.2,Win32,60,9,0,0.717285,1,1,1.15,0,22,22,11,1,Stimuli/testStimuliCube/6u_s_18.png,Stimuli/testStimuliCube/6u_d_18.png,1,1,,,,,,,,,c,3D
,,,,,,,19,male,A,2020-05-13_15h33.49.827,Remembering_Displays,2020.1.2,Win32,60,,0,,1,1,0.78342,0,23,23,14,1,Stimuli/testStimuliCube/6u_s_14_s.png,Stimuli/testStimuliCube/6u_s_14_s.png,0,9,,,,,,,,,s,3D
,,,,,,,19,male,A,2020-05-13_15h33.49.827,Remembering_Displays,2020.1.2,Win32,60,,,,,,,,,,,,,,,,0,5,5,5,1,Stimuli/trialListCubes3.xlsx,Instructions/instr_19.png,Progress: 96 of 192 trials completed,,
,,,,,,,19,male,A,2020-05-13_15h33.49.827,Remembering_Displays,2020.1.2,Win32,60,9,0,0.75665,9,1,0.886855,0,0,0,23,1,Stimuli/testStimuliSquare/6u_s_18_s_2D.png,Stimuli/testStimuliSquare/6u_d_18_s_2D.png,1,1,,,,,,,,,s,2D
,,,,,,,19,male,A,2020-05-13_15h33.49.827,Remembering_Displays,2020.1.2,Win32,60,9,0,0.663675,9,1,0.7171,0,1,1,11,1,Stimuli/testStimuliSquare/6u_s_18_2D.png,Stimuli/testStimuliSquare/6u_d_18_2D.png,1,1,,,,,,,,,c,2D
,,,,,,,19,male,A,2020-05-13_15h33.49.827,Remembering_Displays,2020.1.2,Win32,60,1,1,0.70658,9,0,1.557285,0,2,2,5,1,Stimuli/testStimuliSquare/6u_s_15_2D.png,Stimuli/testStimuliSquare/6u_d_15_2D.png,1,1,,,,,,,,,c,2D
,,,,,,,19,male,A,2020-05-13_15h33.49.827,Remembering_Displays,2020.1.2,Win32,60,1,1,0.86615,9,1,0.54325,0,3,3,21,1,Stimuli/testStimuliSquare/6u_s_17_s_2D.png,Stimuli/testStimuliSquare/6u_d_17_s_2D.png,1,1,,,,,,,,,s,2D
,,,,,,,19,male,A,2020-05-13_15h33.49.827,Remembering_Displays,2020.1.2,Win32,60,1,1,0.919115,1,1,0.60359,0,4,4,15,1,Stimuli/testStimuliSquare/6u_s_14_s_2D.png,Stimuli/testStimuliSquare/6u_d_14_s_2D.png,1,1,,,,,,,,,s,2D
,,,,,,,19,male,A,2020-05-13_15h33.49.827,Remembering_Displays,2020.1.2,Win32,60,9,1,0.977105,9,1,1.07642,0,5,5,4,1,Stimuli/testStimuliSquare/6u_s_15_2D.png,Stimuli/testStimuliSquare/6u_s_15_2D.png,0,9,,,,,,,,,c,2D
,,,,,,,19,male,A,2020-05-13_15h33.49.827,Remembering_Displays,2020.1.2,Win32,60,1,1,0.74504,9,1,0.82584,0,6,6,3,1,Stimuli/testStimuliSquare/6u_s_14_2D.png,Stimuli/testStimuliSquare/6u_d_14_2D.png,1,1,,,,,,,,,c,2D
,,,,,,,19,male,A,2020-05-13_15h33.49.827,Remembering_Displays,2020.1.2,Win32,60,1,0,0.89454,9,1,0.585465,0,7,7,22,1,Stimuli/testStimuliSquare/6u_s_18_s_2D.png,Stimuli/testStimuliSquare/6u_s_18_s_2D.png,0,9,,,,,,,,,s,2D
,,,,,,,19,male,A,2020-05-13_15h33.49.827,Remembering_Displays,2020.1.2,Win32,60,1,1,0.97977,1,1,1.057335,0,8,8,1,1,Stimuli/testStimuliSquare/6u_s_13_2D.png,Stimuli/testStimuliSquare/6u_d_13_2D.png,1,1,,,,,,,,,c,2D
,,,,,,,19,male,A,2020-05-13_15h33.49.827,Remembering_Displays,2020.1.2,Win32,60,9,1,0.748955,1,1,0.389495,0,9,9,20,1,Stimuli/testStimuliSquare/6u_s_17_s_2D.png,Stimuli/testStimuliSquare/6u_s_17_s_2D.png,0,9,,,,,,,,,s,2D
,,,,,,,19,male,A,2020-05-13_15h33.49.827,Remembering_Displays,2020.1.2,Win32,60,1,1,0.781635,9,1,0.792755,0,10,10,9,1,Stimuli/testStimuliSquare/6u_s_17_2D.png,Stimuli/testStimuliSquare/6u_d_17_2D.png,1,1,,,,,,,,,c,2D
,,,,,,,19,male,A,2020-05-13_15h33.49.827,Remembering_Displays,2020.1.2,Win32,60,9,1,0.825955,1,0,0.59154,0,11,11,2,1,Stimuli/testStimuliSquare/6u_s_14_2D.png,Stimuli/testStimuliSquare/6u_s_14_2D.png,0,9,,,,,,,,,c,2D
,,,,,,,19,male,A,2020-05-13_15h33.49.827,Remembering_Displays,2020.1.2,Win32,60,1,1,0.810945,9,1,0.561305,0,12,12,13,1,Stimuli/testStimuliSquare/6u_s_13_s_2D.png,Stimuli/testStimuliSquare/6u_d_13_s_2D.png,1,1,,,,,,,,,s,2D
,,,,,,,19,male,A,2020-05-13_15h33.49.827,Remembering_Displays,2020.1.2,Win32,60,9,1,0.5779,1,1,0.373485,0,13,13,8,1,Stimuli/testStimuliSquare/6u_s_17_2D.png,Stimuli/testStimuliSquare/6u_s_17_2D.png,0,9,,,,,,,,,c,2D
,,,,,,,19,male,A,2020-05-13_15h33.49.827,Remembering_Displays,2020.1.2,Win32,60,1,0,0.64214,9,1,1.04149,0,14,14,6,1,Stimuli/testStimuliSquare/6u_s_16_2D.png,Stimuli/testStimuliSquare/6u_s_16_2D.png,0,9,,,,,,,,,c,2D
,,,,,,,19,male,A,2020-05-13_15h33.49.827,Remembering_Displays,2020.1.2,Win32,60,1,1,0.73495,1,1,0.94019,0,15,15,17,1,Stimuli/testStimuliSquare/6u_s_15_s_2D.png,Stimuli/testStimuliSquare/6u_d_15_s_2D.png,1,1,,,,,,,,,s,2D
,,,,,,,19,male,A,2020-05-13_15h33.49.827,Remembering_Displays,2020.1.2,Win32,60,9,1,0.587325,1,1,0.405955,0,16,16,10,1,Stimuli/testStimuliSquare/6u_s_18_2D.png,Stimuli/testStimuliSquare/6u_s_18_2D.png,0,9,,,,,,,,,c,2D
,,,,,,,19,male,A,2020-05-13_15h33.49.827,Remembering_Displays,2020.1.2,Win32,60,9,1,1.23651,9,1,0.749885,0,17,17,0,1,Stimuli/testStimuliSquare/6u_s_13_2D.png,Stimuli/testStimuliSquare/6u_s_13_2D.png,0,9,,,,,,,,,c,2D
,,,,,,,19,male,A,2020-05-13_15h33.49.827,Remembering_Displays,2020.1.2,Win32,60,1,1,0.661595,9,1,0.390485,0,18,18,19,1,Stimuli/testStimuliSquare/6u_s_16_s_2D.png,Stimuli/testStimuliSquare/6u_d_16_s_2D.png,1,1,,,,,,,,,s,2D
,,,,,,,19,male,A,2020-05-13_15h33.49.827,Remembering_Displays,2020.1.2,Win32,60,9,1,0.559225,9,1,0.302555,0,19,19,16,1,Stimuli/testStimuliSquare/6u_s_15_s_2D.png,Stimuli/testStimuliSquare/6u_s_15_s_2D.png,0,9,,,,,,,,,s,2D
,,,,,,,19,male,A,2020-05-13_15h33.49.827,Remembering_Displays,2020.1.2,Win32,60,9,1,0.7174,9,1,0.4339,0,20,20,18,1,Stimuli/testStimuliSquare/6u_s_16_s_2D.png,Stimuli/testStimuliSquare/6u_s_16_s_2D.png,0,9,,,,,,,,,s,2D
,,,,,,,19,male,A,2020-05-13_15h33.49.827,Remembering_Displays,2020.1.2,Win32,60,1,1,0.826495,9,1,0.51955,0,21,21,7,1,Stimuli/testStimuliSquare/6u_s_16_2D.png,Stimuli/testStimuliSquare/6u_d_16_2D.png,1,1,,,,,,,,,c,2D
,,,,,,,19,male,A,2020-05-13_15h33.49.827,Remembering_Displays,2020.1.2,Win32,60,9,1,0.486175,9,1,0.337715,0,22,22,12,1,Stimuli/testStimuliSquare/6u_s_13_s_2D.png,Stimuli/testStimuliSquare/6u_s_13_s_2D.png,0,9,,,,,,,,,s,2D
,,,,,,,19,male,A,2020-05-13_15h33.49.827,Remembering_Displays,2020.1.2,Win32,60,9,1,0.502405,1,1,0.550345,0,23,23,14,1,Stimuli/testStimuliSquare/6u_s_14_s_2D.png,Stimuli/testStimuliSquare/6u_s_14_s_2D.png,0,9,,,,,,,,,s,2D
,,,,,,,19,male,A,2020-05-13_15h33.49.827,Remembering_Displays,2020.1.2,Win32,60,,,,,,,,,,,,,,,,0,6,6,6,1,Stimuli/trialListSquares3.xlsx,Instructions/instr_18.png,Progress: 120 of 192 trials completed,,
,,,,,,,19,male,A,2020-05-13_15h33.49.827,Remembering_Displays,2020.1.2,Win32,60,1,1,0.810665,1,1,1.18027,0,0,0,15,1,Stimuli/testStimuliCube/6u_s_8_s.png,Stimuli/testStimuliCube/6u_d_8_s.png,1,1,,,,,,,,,s,3D
,,,,,,,19,male,A,2020-05-13_15h33.49.827,Remembering_Displays,2020.1.2,Win32,60,1,1,0.61621,9,0,0.80697,0,1,1,1,1,Stimuli/testStimuliCube/6u_s_7.png,Stimuli/testStimuliCube/6u_d_7.png,1,1,,,,,,,,,c,3D
,,,,,,,19,male,A,2020-05-13_15h33.49.827,Remembering_Displays,2020.1.2,Win32,60,9,1,0.919675,9,1,0.561105,0,2,2,2,1,Stimuli/testStimuliCube/6u_s_8.png,Stimuli/testStimuliCube/6u_s_8.png,0,9,,,,,,,,,c,3D
,,,,,,,19,male,A,2020-05-13_15h33.49.827,Remembering_Displays,2020.1.2,Win32,60,1,0,0.65834,1,1,0.61341,0,3,3,4,1,Stimuli/testStimuliCube/6u_s_9.png,Stimuli/testStimuliCube/6u_s_9.png,0,9,,,,,,,,,c,3D
,,,,,,,19,male,A,2020-05-13_15h33.49.827,Remembering_Displays,2020.1.2,Win32,60,9,0,0.723985,1,1,0.65852,0,4,4,11,1,Stimuli/testStimuliCube/6u_s_12.png,Stimuli/testStimuliCube/6u_d_12.png,1,1,,,,,,,,,c,3D
,,,,,,,19,male,A,2020-05-13_15h33.49.827,Remembering_Displays,2020.1.2,Win32,60,9,1,0.71719,9,1,0.88363,0,5,5,18,1,Stimuli/testStimuliCube/6u_s_10_s.png,Stimuli/testStimuliCube/6u_s_10_s.png,0,9,,,,,,,,,s,3D
,,,,,,,19,male,A,2020-05-13_15h33.49.827,Remembering_Displays,2020.1.2,Win32,60,9,1,0.99103,1,1,1.02838,0,6,6,8,1,Stimuli/testStimuliCube/6u_s_11.png,Stimuli/testStimuliCube/6u_s_11.png,0,9,,,,,,,,,c,3D
,,,,,,,19,male,A,2020-05-13_15h33.49.827,Remembering_Displays,2020.1.2,Win32,60,1,1,0.575025,1,1,0.835425,0,7,7,21,1,Stimuli/testStimuliCube/6u_s_11_s.png,Stimuli/testStimuliCube/6u_d_11_s.png,1,1,,,,,,,,,s,3D
,,,,,,,19,male,A,2020-05-13_15h33.49.827,Remembering_Displays,2020.1.2,Win32,60,1,0,0.841925,9,1,0.508285,0,8,8,12,1,Stimuli/testStimuliCube/6u_s_7_s.png,Stimuli/testStimuliCube/6u_s_7_s.png,0,9,,,,,,,,,s,3D
,,,,,,,19,male,A,2020-05-13_15h33.49.827,Remembering_Displays,2020.1.2,Win32,60,9,1,0.55597,1,1,1.010555,0,9,9,16,1,Stimuli/testStimuliCube/6u_s_9_s.png,Stimuli/testStimuliCube/6u_s_9_s.png,0,9,,,,,,,,,s,3D
,,,,,,,19,male,A,2020-05-13_15h33.49.827,Remembering_Displays,2020.1.2,Win32,60,9,1,0.541595,1,0,0.571305,0,10,10,6,1,Stimuli/testStimuliCube/6u_s_10.png,Stimuli/testStimuliCube/6u_s_10.png,0,9,,,,,,,,,c,3D
,,,,,,,19,male,A,2020-05-13_15h33.49.827,Remembering_Displays,2020.1.2,Win32,60,1,1,0.71353,9,1,0.46713,0,11,11,5,1,Stimuli/testStimuliCube/6u_s_9.png,Stimuli/testStimuliCube/6u_d_9.png,1,1,,,,,,,,,c,3D
,,,,,,,19,male,A,2020-05-13_15h33.49.827,Remembering_Displays,2020.1.2,Win32,60,1,0,0.84408,1,1,0.766895,0,12,12,10,1,Stimuli/testStimuliCube/6u_s_12.png,Stimuli/testStimuliCube/6u_s_12.png,0,9,,,,,,,,,c,3D
,,,,,,,19,male,A,2020-05-13_15h33.49.827,Remembering_Displays,2020.1.2,Win32,60,1,1,0.675025,9,1,0.47082,0,13,13,19,1,Stimuli/testStimuliCube/6u_s_10_s.png,Stimuli/testStimuliCube/6u_d_10_s.png,1,1,,,,,,,,,s,3D
,,,,,,,19,male,A,2020-05-13_15h33.49.827,Remembering_Displays,2020.1.2,Win32,60,9,1,0.94771,1,1,0.583485,0,14,14,14,1,Stimuli/testStimuliCube/6u_s_8_s.png,Stimuli/testStimuliCube/6u_s_8_s.png,0,9,,,,,,,,,s,3D
,,,,,,,19,male,A,2020-05-13_15h33.49.827,Remembering_Displays,2020.1.2,Win32,60,9,1,0.632885,9,1,0.839885,0,15,15,22,1,Stimuli/testStimuliCube/6u_s_12_s.png,Stimuli/testStimuliCube/6u_s_12_s.png,0,9,,,,,,,,,s,3D
,,,,,,,19,male,A,2020-05-13_15h33.49.827,Remembering_Displays,2020.1.2,Win32,60,1,1,0.669915,9,1,0.594275,0,16,16,23,1,Stimuli/testStimuliCube/6u_s_12_s.png,Stimuli/testStimuliCube/6u_d_12_s.png,1,1,,,,,,,,,s,3D
,,,,,,,19,male,A,2020-05-13_15h33.49.827,Remembering_Displays,2020.1.2,Win32,60,9,0,0.90252,1,1,0.63538,0,17,17,9,1,Stimuli/testStimuliCube/6u_s_11.png,Stimuli/testStimuliCube/6u_d_11.png,1,1,,,,,,,,,c,3D
,,,,,,,19,male,A,2020-05-13_15h33.49.827,Remembering_Displays,2020.1.2,Win32,60,1,1,0.792575,1,1,0.94546,0,18,18,7,1,Stimuli/testStimuliCube/6u_s_10.png,Stimuli/testStimuliCube/6u_d_10.png,1,1,,,,,,,,,c,3D
,,,,,,,19,male,A,2020-05-13_15h33.49.827,Remembering_Displays,2020.1.2,Win32,60,1,1,0.71733,1,1,0.600225,0,19,19,3,1,Stimuli/testStimuliCube/6u_s_8.png,Stimuli/testStimuliCube/6u_d_8.png,1,1,,,,,,,,,c,3D
,,,,,,,19,male,A,2020-05-13_15h33.49.827,Remembering_Displays,2020.1.2,Win32,60,1,1,0.584715,1,1,0.723015,0,20,20,13,1,Stimuli/testStimuliCube/6u_s_7_s.png,Stimuli/testStimuliCube/6u_d_7_s.png,1,1,,,,,,,,,s,3D
,,,,,,,19,male,A,2020-05-13_15h33.49.827,Remembering_Displays,2020.1.2,Win32,60,1,0,0.627895,1,1,0.600365,0,21,21,20,1,Stimuli/testStimuliCube/6u_s_11_s.png,Stimuli/testStimuliCube/6u_s_11_s.png,0,9,,,,,,,,,s,3D
,,,,,,,19,male,A,2020-05-13_15h33.49.827,Remembering_Displays,2020.1.2,Win32,60,1,0,0.745765,1,0,0.60466,0,22,22,0,1,Stimuli/testStimuliCube/6u_s_7.png,Stimuli/testStimuliCube/6u_s_7.png,0,9,,,,,,,,,c,3D
,,,,,,,19,male,A,2020-05-13_15h33.49.827,Remembering_Displays,2020.1.2,Win32,60,9,0,0.863185,9,1,0.692245,0,23,23,17,1,Stimuli/testStimuliCube/6u_s_9_s.png,Stimuli/testStimuliCube/6u_d_9_s.png,1,1,,,,,,,,,s,3D
,,,,,,,19,male,A,2020-05-13_15h33.49.827,Remembering_Displays,2020.1.2,Win32,60,,,,,,,,,,,,,,,,0,7,7,7,1,Stimuli/trialListCubes2.xlsx,Instructions/instr_19.png,Progress: 144 of 192 trials completed,,
,,,,,,,19,male,A,2020-05-13_15h33.49.827,Remembering_Displays,2020.1.2,Win32,60,9,0,0.53893,9,1,0.476425,0,0,0,1,1,Stimuli/testStimuliSquare/6u_s_19_2D.png,Stimuli/testStimuliSquare/6u_d_19_2D.png,1,1,,,,,,,,,c,2D
,,,,,,,19,male,A,2020-05-13_15h33.49.827,Remembering_Displays,2020.1.2,Win32,60,9,1,0.425775,1,1,0.50935,0,1,1,20,1,Stimuli/testStimuliSquare/6u_s_23_s_2D.png,Stimuli/testStimuliSquare/6u_s_23_s_2D.png,0,9,,,,,,,,,s,2D
,,,,,,,19,male,A,2020-05-13_15h33.49.827,Remembering_Displays,2020.1.2,Win32,60,1,1,0.67785,9,1,0.48603,0,2,2,13,1,Stimuli/testStimuliSquare/6u_s_19_s_2D.png,Stimuli/testStimuliSquare/6u_d_19_s_2D.png,1,1,,,,,,,,,s,2D
,,,,,,,19,male,A,2020-05-13_15h33.49.827,Remembering_Displays,2020.1.2,Win32,60,9,1,0.62589,9,1,0.944125,0,3,3,22,1,Stimuli/testStimuliSquare/6u_s_24_s_2D.png,Stimuli/testStimuliSquare/6u_s_24_s_2D.png,0,9,,,,,,,,,s,2D
,,,,,,,19,male,A,2020-05-13_15h33.49.827,Remembering_Displays,2020.1.2,Win32,60,9,1,0.561935,9,1,0.38347,0,4,4,14,1,Stimuli/testStimuliSquare/6u_s_20_s_2D.png,Stimuli/testStimuliSquare/6u_s_20_s_2D.png,0,9,,,,,,,,,s,2D
,,,,,,,19,male,A,2020-05-13_15h33.49.827,Remembering_Displays,2020.1.2,Win32,60,1,1,0.66288,1,1,0.51187,0,5,5,7,1,Stimuli/testStimuliSquare/6u_s_22_2D.png,Stimuli/testStimuliSquare/6u_d_22_2D.png,1,1,,,,,,,,,c,2D
,,,,,,,19,male,A,2020-05-13_15h33.49.827,Remembering_Displays,2020.1.2,Win32,60,1,1,0.692045,1,1,0.69017,0,6,6,19,1,Stimuli/testStimuliSquare/6u_s_22_s_2D.png,Stimuli/testStimuliSquare/6u_d_22_s_2D.png,1,1,,,,,,,,,s,2D
,,,,,,,19,male,A,2020-05-13_15h33.49.827,Remembering_Displays,2020.1.2,Win32,60,1,0,0.503235,1,1,0.404575,0,7,7,18,1,Stimuli/testStimuliSquare/6u_s_22_s_2D.png,Stimuli/testStimuliSquare/6u_s_22_s_2D.png,0,9,,,,,,,,,s,2D
,,,,,,,19,male,A,2020-05-13_15h33.49.827,Remembering_Displays,2020.1.2,Win32,60,9,1,0.70193,1,1,0.81891,0,8,8,16,1,Stimuli/testStimuliSquare/6u_s_21_s_2D.png,Stimuli/testStimuliSquare/6u_s_21_s_2D.png,0,9,,,,,,,,,s,2D
,,,,,,,19,male,A,2020-05-13_15h33.49.827,Remembering_Displays,2020.1.2,Win32,60,9,1,0.676115,1,1,0.62905,0,9,9,12,1,Stimuli/testStimuliSquare/6u_s_19_s_2D.png,Stimuli/testStimuliSquare/6u_s_19_s_2D.png,0,9,,,,,,,,,s,2D
,,,,,,,19,male,A,2020-05-13_15h33.49.827,Remembering_Displays,2020.1.2,Win32,60,1,1,0.61747,9,1,0.793355,0,10,10,5,1,Stimuli/testStimuliSquare/6u_s_21_2D.png,Stimuli/testStimuliSquare/6u_d_21_2D.png,1,1,,,,,,,,,c,2D
,,,,,,,19,male,A,2020-05-13_15h33.49.827,Remembering_Displays,2020.1.2,Win32,60,9,0,0.61734,1,1,0.303905,0,11,11,9,1,Stimuli/testStimuliSquare/6u_s_23_2D.png,Stimuli/testStimuliSquare/6u_d_23_2D.png,1,1,,,,,,,,,c,2D
,,,,,,,19,male,A,2020-05-13_15h33.49.827,Remembering_Displays,2020.1.2,Win32,60,9,1,0.700745,1,1,0.39211,0,12,12,2,1,Stimuli/testStimuliSquare/6u_s_20_2D.png,Stimuli/testStimuliSquare/6u_s_20_2D.png,0,9,,,,,,,,,c,2D
,,,,,,,19,male,A,2020-05-13_15h33.49.827,Remembering_Displays,2020.1.2,Win32,60,1,1,0.537285,1,1,0.442765,0,13,13,17,1,Stimuli/testStimuliSquare/6u_s_21_s_2D.png,Stimuli/testStimuliSquare/6u_d_21_s_2D.png,1,1,,,,,,,,,s,2D
,,,,,,,19,male,A,2020-05-13_15h33.49.827,Remembering_Displays,2020.1.2,Win32,60,1,1,0.52126,9,1,0.70382,0,14,14,11,1,Stimuli/testStimuliSquare/6u_s_24_2D.png,Stimuli/testStimuliSquare/6u_d_24_2D.png,1,1,,,,,,,,,c,2D
,,,,,,,19,male,A,2020-05-13_15h33.49.827,Remembering_Displays,2020.1.2,Win32,60,1,1,0.508505,1,1,0.540055,0,15,15,15,1,Stimuli/testStimuliSquare/6u_s_20_s_2D.png,Stimuli/testStimuliSquare/6u_d_20_s_2D.png,1,1,,,,,,,,,s,2D
,,,,,,,19,male,A,2020-05-13_15h33.49.827,Remembering_Displays,2020.1.2,Win32,60,1,0,0.55951,1,1,0.434345,0,16,16,8,1,Stimuli/testStimuliSquare/6u_s_23_2D.png,Stimuli/testStimuliSquare/6u_s_23_2D.png,0,9,,,,,,,,,c,2D
,,,,,,,19,male,A,2020-05-13_15h33.49.827,Remembering_Displays,2020.1.2,Win32,60,1,0,0.69419,1,1,0.53387,0,17,17,6,1,Stimuli/testStimuliSquare/6u_s_22_2D.png,Stimuli/testStimuliSquare/6u_s_22_2D.png,0,9,,,,,,,,,c,2D
,,,,,,,19,male,A,2020-05-13_15h33.49.827,Remembering_Displays,2020.1.2,Win32,60,9,0,0.494805,9,1,0.84482,0,18,18,3,1,Stimuli/testStimuliSquare/6u_s_20_2D.png,Stimuli/testStimuliSquare/6u_d_20_2D.png,1,1,,,,,,,,,c,2D
,,,,,,,19,male,A,2020-05-13_15h33.49.827,Remembering_Displays,2020.1.2,Win32,60,9,1,0.566885,1,0,0.36117,0,19,19,0,1,Stimuli/testStimuliSquare/6u_s_19_2D.png,Stimuli/testStimuliSquare/6u_s_19_2D.png,0,9,,,,,,,,,c,2D
,,,,,,,19,male,A,2020-05-13_15h33.49.827,Remembering_Displays,2020.1.2,Win32,60,1,1,0.717225,9,1,0.67157,0,20,20,23,1,Stimuli/testStimuliSquare/6u_s_24_s_2D.png,Stimuli/testStimuliSquare/6u_d_24_s_2D.png,1,1,,,,,,,,,s,2D
,,,,,,,19,male,A,2020-05-13_15h33.49.827,Remembering_Displays,2020.1.2,Win32,60,9,1,0.6152,9,1,0.87301,0,21,21,4,1,Stimuli/testStimuliSquare/6u_s_21_2D.png,Stimuli/testStimuliSquare/6u_s_21_2D.png,0,9,,,,,,,,,c,2D
,,,,,,,19,male,A,2020-05-13_15h33.49.827,Remembering_Displays,2020.1.2,Win32,60,9,1,0.433245,1,1,0.888095,0,22,22,10,1,Stimuli/testStimuliSquare/6u_s_24_2D.png,Stimuli/testStimuliSquare/6u_s_24_2D.png,0,9,,,,,,,,,c,2D
,,,,,,,19,male,A,2020-05-13_15h33.49.827,Remembering_Displays,2020.1.2,Win32,60,9,0,1.17486,1,0,0.654505,0,23,23,21,1,Stimuli/testStimuliSquare/6u_s_23_s_2D.png,Stimuli/testStimuliSquare/6u_d_23_s_2D.png,1,1,,,,,,,,,s,2D
,,,,,,,19,male,A,2020-05-13_15h33.49.827,Remembering_Displays,2020.1.2,Win32,60,,,,,,,,,,,,,,,,0,8,8,8,1,Stimuli/trialListSquares4.xlsx,Instructions/instr_18.png,Progress: 168 of 192 trials completed,,
,,,,,,,19,male,A,2020-05-13_15h33.49.827,Remembering_Displays,2020.1.2,Win32,60,1,1,0.647,9,1,0.55414,0,0,0,17,1,Stimuli/testStimuliCube/6u_s_3_s.png,Stimuli/testStimuliCube/6u_d_3_s.png,1,1,,,,,,,,,s,3D
,,,,,,,19,male,A,2020-05-13_15h33.49.827,Remembering_Displays,2020.1.2,Win32,60,1,1,0.665235,1,1,0.733765,0,1,1,1,1,Stimuli/testStimuliCube/6u_s_1.png,Stimuli/testStimuliCube/6u_d_1.png,1,1,,,,,,,,,c,3D
,,,,,,,19,male,A,2020-05-13_15h33.49.827,Remembering_Displays,2020.1.2,Win32,60,9,1,0.591745,1,1,1.36648,0,2,2,10,1,Stimuli/testStimuliCube/6u_s_6.png,Stimuli/testStimuliCube/6u_s_6.png,0,9,,,,,,,,,c,3D
,,,,,,,19,male,A,2020-05-13_15h33.49.827,Remembering_Displays,2020.1.2,Win32,60,9,1,0.658265,9,0,1.152305,0,3,3,2,1,Stimuli/testStimuliCube/6u_s_2.png,Stimuli/testStimuliCube/6u_s_2.png,0,9,,,,,,,,,c,3D
,,,,,,,19,male,A,2020-05-13_15h33.49.827,Remembering_Displays,2020.1.2,Win32,60,1,1,0.602995,1,1,0.92863,0,4,4,19,1,Stimuli/testStimuliCube/6u_s_4_s.png,Stimuli/testStimuliCube/6u_d_4_s.png,1,1,,,,,,,,,s,3D
,,,,,,,19,male,A,2020-05-13_15h33.49.827,Remembering_Displays,2020.1.2,Win32,60,1,0,0.630555,1,1,1.092115,0,5,5,22,1,Stimuli/testStimuliCube/6u_s_6_s.png,Stimuli/testStimuliCube/6u_s_6_s.png,0,9,,,,,,,,,s,3D
,,,,,,,19,male,A,2020-05-13_15h33.49.827,Remembering_Displays,2020.1.2,Win32,60,1,0,0.76701,1,1,0.53989,0,6,6,6,1,Stimuli/testStimuliCube/6u_s_4.png,Stimuli/testStimuliCube/6u_s_4.png,0,9,,,,,,,,,c,3D
,,,,,,,19,male,A,2020-05-13_15h33.49.827,Remembering_Displays,2020.1.2,Win32,60,9,1,0.733945,9,1,0.633415,0,7,7,18,1,Stimuli/testStimuliCube/6u_s_4_s.png,Stimuli/testStimuliCube/6u_s_4_s.png,0,9,,,,,,,,,s,3D
,,,,,,,19,male,A,2020-05-13_15h33.49.827,Remembering_Displays,2020.1.2,Win32,60,9,1,0.544405,9,1,0.410665,0,8,8,0,1,Stimuli/testStimuliCube/6u_s_1.png,Stimuli/testStimuliCube/6u_s_1.png,0,9,,,,,,,,,c,3D
,,,,,,,19,male,A,2020-05-13_15h33.49.827,Remembering_Displays,2020.1.2,Win32,60,1,1,0.718025,9,0,0.651765,0,9,9,13,1,Stimuli/testStimuliCube/6u_s_1_s.png,Stimuli/testStimuliCube/6u_d_1_s.png,1,1,,,,,,,,,s,3D
,,,,,,,19,male,A,2020-05-13_15h33.49.827,Remembering_Displays,2020.1.2,Win32,60,1,0,0.808365,9,1,0.485815,0,10,10,8,1,Stimuli/testStimuliCube/6u_s_5.png,Stimuli/testStimuliCube/6u_s_5.png,0,9,,,,,,,,,c,3D
,,,,,,,19,male,A,2020-05-13_15h33.49.827,Remembering_Displays,2020.1.2,Win32,60,9,0,0.758455,1,1,0.489325,0,11,11,9,1,Stimuli/testStimuliCube/6u_s_5.png,Stimuli/testStimuliCube/6u_d_5.png,1,1,,,,,,,,,c,3D
,,,,,,,19,male,A,2020-05-13_15h33.49.827,Remembering_Displays,2020.1.2,Win32,60,9,1,0.64275,9,1,0.479645,0,12,12,4,1,Stimuli/testStimuliCube/6u_s_3.png,Stimuli/testStimuliCube/6u_s_3.png,0,9,,,,,,,,,c,3D
,,,,,,,19,male,A,2020-05-13_15h33.49.827,Remembering_Displays,2020.1.2,Win32,60,9,0,0.71527,1,1,0.969785,0,13,13,23,1,Stimuli/testStimuliCube/6u_s_6_s.png,Stimuli/testStimuliCube/6u_d_6_s.png,1,1,,,,,,,,,s,3D
,,,,,,,19,male,A,2020-05-13_15h33.49.827,Remembering_Displays,2020.1.2,Win32,60,9,1,0.744675,9,1,0.57639,0,14,14,12,1,Stimuli/testStimuliCube/6u_s_1_s.png,Stimuli/testStimuliCube/6u_s_1_s.png,0,9,,,,,,,,,s,3D
,,,,,,,19,male,A,2020-05-13_15h33.49.827,Remembering_Displays,2020.1.2,Win32,60,9,0,0.917085,1,1,0.31868,0,15,15,21,1,Stimuli/testStimuliCube/6u_s_5_s.png,Stimuli/testStimuliCube/6u_d_5_s.png,1,1,,,,,,,,,s,3D
,,,,,,,19,male,A,2020-05-13_15h33.49.827,Remembering_Displays,2020.1.2,Win32,60,9,1,0.414815,9,1,1.45402,0,16,16,16,1,Stimuli/testStimuliCube/6u_s_3_s.png,Stimuli/testStimuliCube/6u_s_3_s.png,0,9,,,,,,,,,s,3D
,,,,,,,19,male,A,2020-05-13_15h33.49.827,Remembering_Displays,2020.1.2,Win32,60,1,1,1.404565,1,1,0.863315,0,17,17,15,1,Stimuli/testStimuliCube/6u_s_2_s.png,Stimuli/testStimuliCube/6u_d_2_s.png,1,1,,,,,,,,,s,3D
,,,,,,,19,male,A,2020-05-13_15h33.49.827,Remembering_Displays,2020.1.2,Win32,60,1,1,0.746875,1,1,0.485085,0,18,18,11,1,Stimuli/testStimuliCube/6u_s_6.png,Stimuli/testStimuliCube/6u_d_6.png,1,1,,,,,,,,,c,3D
,,,,,,,19,male,A,2020-05-13_15h33.49.827,Remembering_Displays,2020.1.2,Win32,60,9,1,0.692585,9,1,0.47255,0,19,19,14,1,Stimuli/testStimuliCube/6u_s_2_s.png,Stimuli/testStimuliCube/6u_s_2_s.png,0,9,,,,,,,,,s,3D
,,,,,,,19,male,A,2020-05-13_15h33.49.827,Remembering_Displays,2020.1.2,Win32,60,9,1,0.5087,9,1,1.026875,0,20,20,20,1,Stimuli/testStimuliCube/6u_s_5_s.png,Stimuli/testStimuliCube/6u_s_5_s.png,0,9,,,,,,,,,s,3D
,,,,,,,19,male,A,2020-05-13_15h33.49.827,Remembering_Displays,2020.1.2,Win32,60,1,1,0.621475,1,1,0.70218,0,21,21,5,1,Stimuli/testStimuliCube/6u_s_3.png,Stimuli/testStimuliCube/6u_d_3.png,1,1,,,,,,,,,c,3D
,,,,,,,19,male,A,2020-05-13_15h33.49.827,Remembering_Displays,2020.1.2,Win32,60,1,1,0.58921,9,1,0.61363,0,22,22,3,1,Stimuli/testStimuliCube/6u_s_2.png,Stimuli/testStimuliCube/6u_d_2.png,1,1,,,,,,,,,c,3D
,,,,,,,19,male,A,2020-05-13_15h33.49.827,Remembering_Displays,2020.1.2,Win32,60,1,1,0.665995,1,1,0.75649,0,23,23,7,1,Stimuli/testStimuliCube/6u_s_4.png,Stimuli/testStimuliCube/6u_d_4.png,1,1,,,,,,,,,c,3D