instr_Loop.thisRepN,instr_Loop.thisTrialN,instr_Loop.thisN,instr_Loop.thisIndex,instr_Loop.ran,instructionImage,time,age,sex (female/male),order,date,expName,psychopyVersion,OS,frameRate,struc_judge_respond.keys,struc_judge_respond.corr,struc_judge_respond.rt,dual_respond.keys,dual_respond.corr,dual_respond.rt,trials.thisRepN,trials.thisTrialN,trials.thisN,trials.thisIndex,trials.ran,stim1,stim2,isAnyChange,corrAns,selectBlock.thisRepN,selectBlock.thisTrialN,selectBlock.thisN,selectBlock.thisIndex,selectBlock.ran,condsFile,condsImage,remaining,connected,dimensionality
0,0,0,0,1,Instructions/consent.png,3,19,female,B,2020-05-14_16h57.08.437,Remembering_Displays,2020.1.2,MacIntel,60,,,,,,,,,,,,,,,,,,,,,,,,,
0,1,1,1,1,Instructions/instr_1.png,5,19,female,B,2020-05-14_16h57.08.437,Remembering_Displays,2020.1.2,MacIntel,60,,,,,,,,,,,,,,,,,,,,,,,,,
0,2,2,2,1,Instructions/instr_2.png,3,19,female,B,2020-05-14_16h57.08.437,Remembering_Displays,2020.1.2,MacIntel,60,,,,,,,,,,,,,,,,,,,,,,,,,
0,3,3,3,1,Instructions/instr_3.png,5,19,female,B,2020-05-14_16h57.08.437,Remembering_Displays,2020.1.2,MacIntel,60,,,,,,,,,,,,,,,,,,,,,,,,,
0,4,4,4,1,Instructions/instr_4.png,1,19,female,B,2020-05-14_16h57.08.437,Remembering_Displays,2020.1.2,MacIntel,60,,,,,,,,,,,,,,,,,,,,,,,,,
0,5,5,5,1,Instructions/instr_5.png,1,19,female,B,2020-05-14_16h57.08.437,Remembering_Displays,2020.1.2,MacIntel,60,,,,,,,,,,,,,,,,,,,,,,,,,
0,6,6,6,1,Instructions/instr_6.png,1,19,female,B,2020-05-14_16h57.08.437,Remembering_Displays,2020.1.2,MacIntel,60,,,,,,,,,,,,,,,,,,,,,,,,,
0,7,7,7,1,Instructions/instr_7.png,1,19,female,B,2020-05-14_16h57.08.437,Remembering_Displays,2020.1.2,MacIntel,60,,,,,,,,,,,,,,,,,,,,,,,,,
0,8,8,8,1,Instructions/instr_8.png,3,19,female,B,2020-05-14_16h57.08.437,Remembering_Displays,2020.1.2,MacIntel,60,,,,,,,,,,,,,,,,,,,,,,,,,
0,9,9,9,1,Instructions/instr_9.png,3,19,female,B,2020-05-14_16h57.08.437,Remembering_Displays,2020.1.2,MacIntel,60,,,,,,,,,,,,,,,,,,,,,,,,,
0,10,10,10,1,Instructions/instr_10.png,3,19,female,B,2020-05-14_16h57.08.437,Remembering_Displays,2020.1.2,MacIntel,60,,,,,,,,,,,,,,,,,,,,,,,,,
0,11,11,11,1,Instructions/instr_11.png,3,19,female,B,2020-05-14_16h57.08.437,Remembering_Displays,2020.1.2,MacIntel,60,,,,,,,,,,,,,,,,,,,,,,,,,
0,12,12,12,1,Instructions/instr_12.png,3,19,female,B,2020-05-14_16h57.08.437,Remembering_Displays,2020.1.2,MacIntel,60,,,,,,,,,,,,,,,,,,,,,,,,,
0,13,13,13,1,Instructions/instr_13.png,3,19,female,B,2020-05-14_16h57.08.437,Remembering_Displays,2020.1.2,MacIntel,60,,,,,,,,,,,,,,,,,,,,,,,,,
0,14,14,14,1,Instructions/instr_14.png,3,19,female,B,2020-05-14_16h57.08.437,Remembering_Displays,2020.1.2,MacIntel,60,,,,,,,,,,,,,,,,,,,,,,,,,
0,15,15,15,1,Instructions/instr_15.png,3,19,female,B,2020-05-14_16h57.08.437,Remembering_Displays,2020.1.2,MacIntel,60,,,,,,,,,,,,,,,,,,,,,,,,,
0,16,16,16,1,Instructions/instr_16.png,5,19,female,B,2020-05-14_16h57.08.437,Remembering_Displays,2020.1.2,MacIntel,60,,,,,,,,,,,,,,,,,,,,,,,,,
,,,,,,,19,female,B,2020-05-14_16h57.08.437,Remembering_Displays,2020.1.2,MacIntel,60,1,1,0.92906,9,1,0.801695,0,0,0,4,1,Stimuli/practiceStimuliCube/practice1_s.png,Stimuli/practiceStimuliCube/practice1_d.png,1,1,,,,,,,,,,
,,,,,,,19,female,B,2020-05-14_16h57.08.437,Remembering_Displays,2020.1.2,MacIntel,60,1,1,1.0467,1,1,2.266295,0,1,1,1,1,Stimuli/practiceStimuliCube/practice2_s.png,Stimuli/practiceStimuliCube/practice2_d.png,1,1,,,,,,,,,,
,,,,,,,19,female,B,2020-05-14_16h57.08.437,Remembering_Displays,2020.1.2,MacIntel,60,9,1,0.88475,1,1,1.17433,0,2,2,7,1,Stimuli/practiceStimuliCube/practice4_s.png,Stimuli/practiceStimuliCube/practice4_s.png,0,9,,,,,,,,,,
,,,,,,,19,female,B,2020-05-14_16h57.08.437,Remembering_Displays,2020.1.2,MacIntel,60,9,0,1.22391,9,1,0.781775,0,3,3,6,1,Stimuli/practiceStimuliCube/practice3_s.png,Stimuli/practiceStimuliCube/practice3_d.png,1,1,,,,,,,,,,
,,,,,,,19,female,B,2020-05-14_16h57.08.437,Remembering_Displays,2020.1.2,MacIntel,60,1,1,1.36211,1,1,3.73274,0,4,4,3,1,Stimuli/practiceStimuliCube/practice4_s.png,Stimuli/practiceStimuliCube/practice4_d.png,1,1,,,,,,,,,,
,,,,,,,19,female,B,2020-05-14_16h57.08.437,Remembering_Displays,2020.1.2,MacIntel,60,9,1,1.040095,9,1,0.901285,0,5,5,2,1,Stimuli/practiceStimuliCube/practice3_s.png,Stimuli/practiceStimuliCube/practice3_s.png,0,9,,,,,,,,,,
,,,,,,,19,female,B,2020-05-14_16h57.08.437,Remembering_Displays,2020.1.2,MacIntel,60,9,1,0.952085,1,1,0.671145,0,6,6,0,1,Stimuli/practiceStimuliCube/practice1_s.png,Stimuli/practiceStimuliCube/practice1_s.png,0,9,,,,,,,,,,
,,,,,,,19,female,B,2020-05-14_16h57.08.437,Remembering_Displays,2020.1.2,MacIntel,60,9,1,1.096855,1,1,2.13395,0,7,7,5,1,Stimuli/practiceStimuliCube/practice2_s.png,Stimuli/practiceStimuliCube/practice2_s.png,0,9,,,,,,,,,,
,,,,,,,19,female,B,2020-05-14_16h57.08.437,Remembering_Displays,2020.1.2,MacIntel,60,,,,,,,,,,,,,,,,0,0,0,0,1,Stimuli/practiceListCubes.xlsx,Instructions/instr_practice_B.png,Practice trials completed,,
,,,,,,,19,female,B,2020-05-14_16h57.08.437,Remembering_Displays,2020.1.2,MacIntel,60,9,1,1.358675,1,1,0.740585,0,0,0,0,1,Stimuli/testStimuliCube/6u_s_1.png,Stimuli/testStimuliCube/6u_s_1.png,0,9,,,,,,,,,c,3D
,,,,,,,19,female,B,2020-05-14_16h57.08.437,Remembering_Displays,2020.1.2,MacIntel,60,9,1,1.073475,1,1,1.969335,0,1,1,8,1,Stimuli/testStimuliCube/6u_s_5.png,Stimuli/testStimuliCube/6u_s_5.png,0,9,,,,,,,,,c,3D
,,,,,,,19,female,B,2020-05-14_16h57.08.437,Remembering_Displays,2020.1.2,MacIntel,60,9,1,1.25247,9,1,0.56685,0,2,2,16,1,Stimuli/testStimuliCube/6u_s_3_s.png,Stimuli/testStimuliCube/6u_s_3_s.png,0,9,,,,,,,,,s,3D
,,,,,,,19,female,B,2020-05-14_16h57.08.437,Remembering_Displays,2020.1.2,MacIntel,60,9,1,0.923505,1,1,0.961465,0,3,3,10,1,Stimuli/testStimuliCube/6u_s_6.png,Stimuli/testStimuliCube/6u_s_6.png,0,9,,,,,,,,,c,3D
,,,,,,,19,female,B,2020-05-14_16h57.08.437,Remembering_Displays,2020.1.2,MacIntel,60,9,1,0.97557,1,1,0.88417,0,4,4,22,1,Stimuli/testStimuliCube/6u_s_6_s.png,Stimuli/testStimuliCube/6u_s_6_s.png,0,9,,,,,,,,,s,3D
,,,,,,,19,female,B,2020-05-14_16h57.08.437,Remembering_Displays,2020.1.2,MacIntel,60,1,1,0.94729,1,1,2.42013,0,5,5,7,1,Stimuli/testStimuliCube/6u_s_4.png,Stimuli/testStimuliCube/6u_d_4.png,1,1,,,,,,,,,c,3D
,,,,,,,19,female,B,2020-05-14_16h57.08.437,Remembering_Displays,2020.1.2,MacIntel,60,1,1,0.829,1,1,0.6443,0,6,6,5,1,Stimuli/testStimuliCube/6u_s_3.png,Stimuli/testStimuliCube/6u_d_3.png,1,1,,,,,,,,,c,3D
,,,,,,,19,female,B,2020-05-14_16h57.08.437,Remembering_Displays,2020.1.2,MacIntel,60,1,1,0.89809,1,1,1.448225,0,7,7,13,1,Stimuli/testStimuliCube/6u_s_1_s.png,Stimuli/testStimuliCube/6u_d_1_s.png,1,1,,,,,,,,,s,3D
,,,,,,,19,female,B,2020-05-14_16h57.08.437,Remembering_Displays,2020.1.2,MacIntel,60,1,1,0.994435,1,1,0.676705,0,8,8,17,1,Stimuli/testStimuliCube/6u_s_3_s.png,Stimuli/testStimuliCube/6u_d_3_s.png,1,1,,,,,,,,,s,3D
,,,,,,,19,female,B,2020-05-14_16h57.08.437,Remembering_Displays,2020.1.2,MacIntel,60,9,1,0.967415,1,1,1.880365,0,9,9,4,1,Stimuli/testStimuliCube/6u_s_3.png,Stimuli/testStimuliCube/6u_s_3.png,0,9,,,,,,,,,c,3D
,,,,,,,19,female,B,2020-05-14_16h57.08.437,Remembering_Displays,2020.1.2,MacIntel,60,9,0,1.41414,1,1,1.03855,0,10,10,23,1,Stimuli/testStimuliCube/6u_s_6_s.png,Stimuli/testStimuliCube/6u_d_6_s.png,1,1,,,,,,,,,s,3D
,,,,,,,19,female,B,2020-05-14_16h57.08.437,Remembering_Displays,2020.1.2,MacIntel,60,1,1,1.307375,9,1,1.244185,0,11,11,15,1,Stimuli/testStimuliCube/6u_s_2_s.png,Stimuli/testStimuliCube/6u_d_2_s.png,1,1,,,,,,,,,s,3D
,,,,,,,19,female,B,2020-05-14_16h57.08.437,Remembering_Displays,2020.1.2,MacIntel,60,1,0,0.848075,9,1,1.53642,0,12,12,14,1,Stimuli/testStimuliCube/6u_s_2_s.png,Stimuli/testStimuliCube/6u_s_2_s.png,0,9,,,,,,,,,s,3D
,,,,,,,19,female,B,2020-05-14_16h57.08.437,Remembering_Displays,2020.1.2,MacIntel,60,9,1,0.901835,9,1,0.80134,0,13,13,12,1,Stimuli/testStimuliCube/6u_s_1_s.png,Stimuli/testStimuliCube/6u_s_1_s.png,0,9,,,,,,,,,s,3D
,,,,,,,19,female,B,2020-05-14_16h57.08.437,Remembering_Displays,2020.1.2,MacIntel,60,1,1,1.374195,1,1,1.518165,0,14,14,19,1,Stimuli/testStimuliCube/6u_s_4_s.png,Stimuli/testStimuliCube/6u_d_4_s.png,1,1,,,,,,,,,s,3D
,,,,,,,19,female,B,2020-05-14_16h57.08.437,Remembering_Displays,2020.1.2,MacIntel,60,9,0,0.829695,9,1,1.43544,0,15,15,3,1,Stimuli/testStimuliCube/6u_s_2.png,Stimuli/testStimuliCube/6u_d_2.png,1,1,,,,,,,,,c,3D
,,,,,,,19,female,B,2020-05-14_16h57.08.437,Remembering_Displays,2020.1.2,MacIntel,60,1,1,1.132125,9,1,0.8285,0,16,16,21,1,Stimuli/testStimuliCube/6u_s_5_s.png,Stimuli/testStimuliCube/6u_d_5_s.png,1,1,,,,,,,,,s,3D
,,,,,,,19,female,B,2020-05-14_16h57.08.437,Remembering_Displays,2020.1.2,MacIntel,60,9,1,1.40027,9,1,0.818665,0,17,17,18,1,Stimuli/testStimuliCube/6u_s_4_s.png,Stimuli/testStimuliCube/6u_s_4_s.png,0,9,,,,,,,,,s,3D
,,,,,,,19,female,B,2020-05-14_16h57.08.437,Remembering_Displays,2020.1.2,MacIntel,60,1,1,0.90777,9,1,1.552705,0,18,18,11,1,Stimuli/testStimuliCube/6u_s_6.png,Stimuli/testStimuliCube/6u_d_6.png,1,1,,,,,,,,,c,3D
,,,,,,,19,female,B,2020-05-14_16h57.08.437,Remembering_Displays,2020.1.2,MacIntel,60,,0,,1,1,2.06895,0,19,19,9,1,Stimuli/testStimuliCube/6u_s_5.png,Stimuli/testStimuliCube/6u_d_5.png,1,1,,,,,,,,,c,3D
,,,,,,,19,female,B,2020-05-14_16h57.08.437,Remembering_Displays,2020.1.2,MacIntel,60,9,1,1.0613,1,1,1.016935,0,20,20,20,1,Stimuli/testStimuliCube/6u_s_5_s.png,Stimuli/testStimuliCube/6u_s_5_s.png,0,9,,,,,,,,,s,3D
,,,,,,,19,female,B,2020-05-14_16h57.08.437,Remembering_Displays,2020.1.2,MacIntel,60,9,1,1.146655,1,1,1.434415,0,21,21,2,1,Stimuli/testStimuliCube/6u_s_2.png,Stimuli/testStimuliCube/6u_s_2.png,0,9,,,,,,,,,c,3D
,,,,,,,19,female,B,2020-05-14_16h57.08.437,Remembering_Displays,2020.1.2,MacIntel,60,9,1,0.932545,1,1,0.633485,0,22,22,6,1,Stimuli/testStimuliCube/6u_s_4.png,Stimuli/testStimuliCube/6u_s_4.png,0,9,,,,,,,,,c,3D
,,,,,,,19,female,B,2020-05-14_16h57.08.437,Remembering_Displays,2020.1.2,MacIntel,60,1,1,1.081375,1,1,1.0797,0,23,23,1,1,Stimuli/testStimuliCube/6u_s_1.png,Stimuli/testStimuliCube/6u_d_1.png,1,1,,,,,,,,,c,3D
,,,,,,,19,female,B,2020-05-14_16h57.08.437,Remembering_Displays,2020.1.2,MacIntel,60,,,,,,,,,,,,,,,,0,1,1,1,1,Stimuli/trialListCubes1.xlsx,Instructions/instr_19.png,Progress: 24 of 192 trials completed,,
,,,,,,,19,female,B,2020-05-14_16h57.08.437,Remembering_Displays,2020.1.2,MacIntel,60,9,1,1.10358,1,1,1.42749,0,0,0,0,1,Stimuli/practiceStimuliSquare/practice1_s.png,Stimuli/practiceStimuliSquare/practice1_s.png,0,9,,,,,,,,,,
,,,,,,,19,female,B,2020-05-14_16h57.08.437,Remembering_Displays,2020.1.2,MacIntel,60,9,1,1.036625,1,1,0.911885,0,1,1,5,1,Stimuli/practiceStimuliSquare/practice2_s.png,Stimuli/practiceStimuliSquare/practice2_s.png,0,9,,,,,,,,,,
,,,,,,,19,female,B,2020-05-14_16h57.08.437,Remembering_Displays,2020.1.2,MacIntel,60,9,1,0.84763,1,1,1.04326,0,2,2,7,1,Stimuli/practiceStimuliSquare/practice4_s.png,Stimuli/practiceStimuliSquare/practice4_s.png,0,9,,,,,,,,,,
,,,,,,,19,female,B,2020-05-14_16h57.08.437,Remembering_Displays,2020.1.2,MacIntel,60,1,1,1.073615,1,1,0.73032,0,3,3,1,1,Stimuli/practiceStimuliSquare/practice2_s.png,Stimuli/practiceStimuliSquare/practice2_d.png,1,1,,,,,,,,,,
,,,,,,,19,female,B,2020-05-14_16h57.08.437,Remembering_Displays,2020.1.2,MacIntel,60,9,1,0.83491,1,1,0.83257,0,4,4,2,1,Stimuli/practiceStimuliSquare/practice3_s.png,Stimuli/practiceStimuliSquare/practice3_s.png,0,9,,,,,,,,,,
,,,,,,,19,female,B,2020-05-14_16h57.08.437,Remembering_Displays,2020.1.2,MacIntel,60,1,1,0.979315,9,1,0.56735,0,5,5,3,1,Stimuli/practiceStimuliSquare/practice4_s.png,Stimuli/practiceStimuliSquare/practice4_d.png,1,1,,,,,,,,,,
,,,,,,,19,female,B,2020-05-14_16h57.08.437,Remembering_Displays,2020.1.2,MacIntel,60,1,1,0.894835,9,1,2.176555,0,6,6,4,1,Stimuli/practiceStimuliSquare/practice1_s.png,Stimuli/practiceStimuliSquare/practice1_d.png,1,1,,,,,,,,,,
,,,,,,,19,female,B,2020-05-14_16h57.08.437,Remembering_Displays,2020.1.2,MacIntel,60,1,1,0.938265,9,1,1.652025,0,7,7,6,1,Stimuli/practiceStimuliSquare/practice3_s.png,Stimuli/practiceStimuliSquare/practice3_d.png,1,1,,,,,,,,,,
,,,,,,,19,female,B,2020-05-14_16h57.08.437,Remembering_Displays,2020.1.2,MacIntel,60,,,,,,,,,,,,,,,,0,2,2,2,1,Stimuli/practiceListSquares.xlsx,Instructions/instr_practice_A.png,Practice trials completed,,
,,,,,,,19,female,B,2020-05-14_16h57.08.437,Remembering_Displays,2020.1.2,MacIntel,60,1,1,0.943055,1,1,1.307865,0,0,0,3,1,Stimuli/testStimuliSquare/6u_s_20_2D.png,Stimuli/testStimuliSquare/6u_d_20_2D.png,1,1,,,,,,,,,c,2D
,,,,,,,19,female,B,2020-05-14_16h57.08.437,Remembering_Displays,2020.1.2,MacIntel,60,1,1,0.977385,1,1,1.27113,0,1,1,11,1,Stimuli/testStimuliSquare/6u_s_24_2D.png,Stimuli/testStimuliSquare/6u_d_24_2D.png,1,1,,,,,,,,,c,2D
,,,,,,,19,female,B,2020-05-14_16h57.08.437,Remembering_Displays,2020.1.2,MacIntel,60,1,1,0.84407,9,1,1.32888,0,2,2,15,1,Stimuli/testStimuliSquare/6u_s_20_s_2D.png,Stimuli/testStimuliSquare/6u_d_20_s_2D.png,1,1,,,,,,,,,s,2D
,,,,,,,19,female,B,2020-05-14_16h57.08.437,Remembering_Displays,2020.1.2,MacIntel,60,1,1,0.916185,1,1,2.321905,0,3,3,7,1,Stimuli/testStimuliSquare/6u_s_22_2D.png,Stimuli/testStimuliSquare/6u_d_22_2D.png,1,1,,,,,,,,,c,2D
,,,,,,,19,female,B,2020-05-14_16h57.08.437,Remembering_Displays,2020.1.2,MacIntel,60,1,1,0.88627,1,1,1.701055,0,4,4,23,1,Stimuli/testStimuliSquare/6u_s_24_s_2D.png,Stimuli/testStimuliSquare/6u_d_24_s_2D.png,1,1,,,,,,,,,s,2D
,,,,,,,19,female,B,2020-05-14_16h57.08.437,Remembering_Displays,2020.1.2,MacIntel,60,9,0,1.339565,9,1,1.07669,0,5,5,13,1,Stimuli/testStimuliSquare/6u_s_19_s_2D.png,Stimuli/testStimuliSquare/6u_d_19_s_2D.png,1,1,,,,,,,,,s,2D
,,,,,,,19,female,B,2020-05-14_16h57.08.437,Remembering_Displays,2020.1.2,MacIntel,60,1,0,1.36162,9,1,3.008175,0,6,6,16,1,Stimuli/testStimuliSquare/6u_s_21_s_2D.png,Stimuli/testStimuliSquare/6u_s_21_s_2D.png,0,9,,,,,,,,,s,2D
,,,,,,,19,female,B,2020-05-14_16h57.08.437,Remembering_Displays,2020.1.2,MacIntel,60,9,1,0.885485,1,1,0.896655,0,7,7,0,1,Stimuli/testStimuliSquare/6u_s_19_2D.png,Stimuli/testStimuliSquare/6u_s_19_2D.png,0,9,,,,,,,,,c,2D
,,,,,,,19,female,B,2020-05-14_16h57.08.437,Remembering_Displays,2020.1.2,MacIntel,60,9,1,0.78564,1,1,1.135165,0,8,8,2,1,Stimuli/testStimuliSquare/6u_s_20_2D.png,Stimuli/testStimuliSquare/6u_s_20_2D.png,0,9,,,,,,,,,c,2D
,,,,,,,19,female,B,2020-05-14_16h57.08.437,Remembering_Displays,2020.1.2,MacIntel,60,1,1,0.924455,9,1,1.68147,0,9,9,17,1,Stimuli/testStimuliSquare/6u_s_21_s_2D.png,Stimuli/testStimuliSquare/6u_d_21_s_2D.png,1,1,,,,,,,,,s,2D
,,,,,,,19,female,B,2020-05-14_16h57.08.437,Remembering_Displays,2020.1.2,MacIntel,60,1,1,1.09479,9,1,1.438155,0,10,10,21,1,Stimuli/testStimuliSquare/6u_s_23_s_2D.png,Stimuli/testStimuliSquare/6u_d_23_s_2D.png,1,1,,,,,,,,,s,2D
,,,,,,,19,female,B,2020-05-14_16h57.08.437,Remembering_Displays,2020.1.2,MacIntel,60,9,1,1.317385,1,1,1.992235,0,11,11,10,1,Stimuli/testStimuliSquare/6u_s_24_2D.png,Stimuli/testStimuliSquare/6u_s_24_2D.png,0,9,,,,,,,,,c,2D
,,,,,,,19,female,B,2020-05-14_16h57.08.437,Remembering_Displays,2020.1.2,MacIntel,60,1,1,1.242545,1,1,1.133895,0,12,12,9,1,Stimuli/testStimuliSquare/6u_s_23_2D.png,Stimuli/testStimuliSquare/6u_d_23_2D.png,1,1,,,,,,,,,c,2D
,,,,,,,19,female,B,2020-05-14_16h57.08.437,Remembering_Displays,2020.1.2,MacIntel,60,9,1,0.833775,1,1,0.73827,0,13,13,22,1,Stimuli/testStimuliSquare/6u_s_24_s_2D.png,Stimuli/testStimuliSquare/6u_s_24_s_2D.png,0,9,,,,,,,,,s,2D
,,,,,,,19,female,B,2020-05-14_16h57.08.437,Remembering_Displays,2020.1.2,MacIntel,60,1,1,1.064625,9,1,3.01732,0,14,14,19,1,Stimuli/testStimuliSquare/6u_s_22_s_2D.png,Stimuli/testStimuliSquare/6u_d_22_s_2D.png,1,1,,,,,,,,,s,2D
,,,,,,,19,female,B,2020-05-14_16h57.08.437,Remembering_Displays,2020.1.2,MacIntel,60,9,1,1.139735,1,1,1.10085,0,15,15,18,1,Stimuli/testStimuliSquare/6u_s_22_s_2D.png,Stimuli/testStimuliSquare/6u_s_22_s_2D.png,0,9,,,,,,,,,s,2D
,,,,,,,19,female,B,2020-05-14_16h57.08.437,Remembering_Displays,2020.1.2,MacIntel,60,9,1,0.9845,9,1,0.912865,0,16,16,12,1,Stimuli/testStimuliSquare/6u_s_19_s_2D.png,Stimuli/testStimuliSquare/6u_s_19_s_2D.png,0,9,,,,,,,,,s,2D
,,,,,,,19,female,B,2020-05-14_16h57.08.437,Remembering_Displays,2020.1.2,MacIntel,60,9,1,0.97091,1,1,0.55048,0,17,17,14,1,Stimuli/testStimuliSquare/6u_s_20_s_2D.png,Stimuli/testStimuliSquare/6u_s_20_s_2D.png,0,9,,,,,,,,,s,2D
,,,,,,,19,female,B,2020-05-14_16h57.08.437,Remembering_Displays,2020.1.2,MacIntel,60,9,1,0.886295,1,1,3.352125,0,18,18,8,1,Stimuli/testStimuliSquare/6u_s_23_2D.png,Stimuli/testStimuliSquare/6u_s_23_2D.png,0,9,,,,,,,,,c,2D
,,,,,,,19,female,B,2020-05-14_16h57.08.437,Remembering_Displays,2020.1.2,MacIntel,60,9,1,1.01944,9,1,1.884065,0,19,19,6,1,Stimuli/testStimuliSquare/6u_s_22_2D.png,Stimuli/testStimuliSquare/6u_s_22_2D.png,0,9,,,,,,,,,c,2D
,,,,,,,19,female,B,2020-05-14_16h57.08.437,Remembering_Displays,2020.1.2,MacIntel,60,1,1,0.95455,9,1,0.666705,0,20,20,5,1,Stimuli/testStimuliSquare/6u_s_21_2D.png,Stimuli/testStimuliSquare/6u_d_21_2D.png,1,1,,,,,,,,,c,2D
,,,,,,,19,female,B,2020-05-14_16h57.08.437,Remembering_Displays,2020.1.2,MacIntel,60,9,1,0.92986,1,1,1.067925,0,21,21,4,1,Stimuli/testStimuliSquare/6u_s_21_2D.png,Stimuli/testStimuliSquare/6u_s_21_2D.png,0,9,,,,,,,,,c,2D
,,,,,,,19,female,B,2020-05-14_16h57.08.437,Remembering_Displays,2020.1.2,MacIntel,60,1,1,1.17209,1,1,0.91645,0,22,22,1,1,Stimuli/testStimuliSquare/6u_s_19_2D.png,Stimuli/testStimuliSquare/6u_d_19_2D.png,1,1,,,,,,,,,c,2D
,,,,,,,19,female,B,2020-05-14_16h57.08.437,Remembering_Displays,2020.1.2,MacIntel,60,9,1,0.812355,9,1,4.37835,0,23,23,20,1,Stimuli/testStimuliSquare/6u_s_23_s_2D.png,Stimuli/testStimuliSquare/6u_s_23_s_2D.png,0,9,,,,,,,,,s,2D
,,,,,,,19,female,B,2020-05-14_16h57.08.437,Remembering_Displays,2020.1.2,MacIntel,60,,,,,,,,,,,,,,,,0,3,3,3,1,Stimuli/trialListSquares4.xlsx,Instructions/instr_18.png,Progress: 48 of 192 trials completed,,
,,,,,,,19,female,B,2020-05-14_16h57.08.437,Remembering_Displays,2020.1.2,MacIntel,60,9,1,0.88682,9,1,1.502405,0,0,0,20,1,Stimuli/testStimuliCube/6u_s_11_s.png,Stimuli/testStimuliCube/6u_s_11_s.png,0,9,,,,,,,,,s,3D
,,,,,,,19,female,B,2020-05-14_16h57.08.437,Remembering_Displays,2020.1.2,MacIntel,60,1,1,0.615185,9,1,4.193785,0,1,1,21,1,Stimuli/testStimuliCube/6u_s_11_s.png,Stimuli/testStimuliCube/6u_d_11_s.png,1,1,,,,,,,,,s,3D
,,,,,,,19,female,B,2020-05-14_16h57.08.437,Remembering_Displays,2020.1.2,MacIntel,60,9,1,0.93071,9,1,0.831825,0,2,2,4,1,Stimuli/testStimuliCube/6u_s_9.png,Stimuli/testStimuliCube/6u_s_9.png,0,9,,,,,,,,,c,3D
,,,,,,,19,female,B,2020-05-14_16h57.08.437,Remembering_Displays,2020.1.2,MacIntel,60,9,0,1.43131,9,1,1.83374,0,3,3,15,1,Stimuli/testStimuliCube/6u_s_8_s.png,Stimuli/testStimuliCube/6u_d_8_s.png,1,1,,,,,,,,,s,3D
,,,,,,,19,female,B,2020-05-14_16h57.08.437,Remembering_Displays,2020.1.2,MacIntel,60,9,1,0.96939,1,1,1.973535,0,4,4,14,1,Stimuli/testStimuliCube/6u_s_8_s.png,Stimuli/testStimuliCube/6u_s_8_s.png,0,9,,,,,,,,,s,3D
,,,,,,,19,female,B,2020-05-14_16h57.08.437,Remembering_Displays,2020.1.2,MacIntel,60,9,0,0.994045,9,1,0.91757,0,5,5,3,1,Stimuli/testStimuliCube/6u_s_8.png,Stimuli/testStimuliCube/6u_d_8.png,1,1,,,,,,,,,c,3D
,,,,,,,19,female,B,2020-05-14_16h57.08.437,Remembering_Displays,2020.1.2,MacIntel,60,9,1,0.934805,1,1,0.750755,0,6,6,22,1,Stimuli/testStimuliCube/6u_s_12_s.png,Stimuli/testStimuliCube/6u_s_12_s.png,0,9,,,,,,,,,s,3D
,,,,,,,19,female,B,2020-05-14_16h57.08.437,Remembering_Displays,2020.1.2,MacIntel,60,,0,,9,1,1.824485,0,7,7,19,1,Stimuli/testStimuliCube/6u_s_10_s.png,Stimuli/testStimuliCube/6u_d_10_s.png,1,1,,,,,,,,,s,3D
,,,,,,,19,female,B,2020-05-14_16h57.08.437,Remembering_Displays,2020.1.2,MacIntel,60,9,1,0.815415,1,1,6.25128,0,8,8,2,1,Stimuli/testStimuliCube/6u_s_8.png,Stimuli/testStimuliCube/6u_s_8.png,0,9,,,,,,,,,c,3D
,,,,,,,19,female,B,2020-05-14_16h57.08.437,Remembering_Displays,2020.1.2,MacIntel,60,9,1,0.81749,1,1,0.58806,0,9,9,0,1,Stimuli/testStimuliCube/6u_s_7.png,Stimuli/testStimuliCube/6u_s_7.png,0,9,,,,,,,,,c,3D
,,,,,,,19,female,B,2020-05-14_16h57.08.437,Remembering_Displays,2020.1.2,MacIntel,60,9,0,0.74225,1,1,1.13649,0,10,10,5,1,Stimuli/testStimuliCube/6u_s_9.png,Stimuli/testStimuliCube/6u_d_9.png,1,1,,,,,,,,,c,3D
,,,,,,,19,female,B,2020-05-14_16h57.08.437,Remembering_Displays,2020.1.2,MacIntel,60,9,0,1.010015,1,1,0.857345,0,11,11,23,1,Stimuli/testStimuliCube/6u_s_12_s.png,Stimuli/testStimuliCube/6u_d_12_s.png,1,1,,,,,,,,,s,3D
,,,,,,,19,female,B,2020-05-14_16h57.08.437,Remembering_Displays,2020.1.2,MacIntel,60,9,1,0.730965,1,1,0.927385,0,12,12,12,1,Stimuli/testStimuliCube/6u_s_7_s.png,Stimuli/testStimuliCube/6u_s_7_s.png,0,9,,,,,,,,,s,3D
,,,,,,,19,female,B,2020-05-14_16h57.08.437,Remembering_Displays,2020.1.2,MacIntel,60,9,1,0.782905,9,1,1.89978,0,13,13,18,1,Stimuli/testStimuliCube/6u_s_10_s.png,Stimuli/testStimuliCube/6u_s_10_s.png,0,9,,,,,,,,,s,3D
,,,,,,,19,female,B,2020-05-14_16h57.08.437,Remembering_Displays,2020.1.2,MacIntel,60,9,1,0.680265,9,1,0.918955,0,14,14,6,1,Stimuli/testStimuliCube/6u_s_10.png,Stimuli/testStimuliCube/6u_s_10.png,0,9,,,,,,,,,c,3D
,,,,,,,19,female,B,2020-05-14_16h57.08.437,Remembering_Displays,2020.1.2,MacIntel,60,1,1,0.99887,1,1,3.451,0,15,15,17,1,Stimuli/testStimuliCube/6u_s_9_s.png,Stimuli/testStimuliCube/6u_d_9_s.png,1,1,,,,,,,,,s,3D
,,,,,,,19,female,B,2020-05-14_16h57.08.437,Remembering_Displays,2020.1.2,MacIntel,60,1,1,0.992245,9,1,0.97898,0,16,16,13,1,Stimuli/testStimuliCube/6u_s_7_s.png,Stimuli/testStimuliCube/6u_d_7_s.png,1,1,,,,,,,,,s,3D
,,,,,,,19,female,B,2020-05-14_16h57.08.437,Remembering_Displays,2020.1.2,MacIntel,60,1,0,0.921035,1,1,0.82518,0,17,17,10,1,Stimuli/testStimuliCube/6u_s_12.png,Stimuli/testStimuliCube/6u_s_12.png,0,9,,,,,,,,,c,3D
,,,,,,,19,female,B,2020-05-14_16h57.08.437,Remembering_Displays,2020.1.2,MacIntel,60,1,1,0.91047,9,1,0.52399,0,18,18,11,1,Stimuli/testStimuliCube/6u_s_12.png,Stimuli/testStimuliCube/6u_d_12.png,1,1,,,,,,,,,c,3D
,,,,,,,19,female,B,2020-05-14_16h57.08.437,Remembering_Displays,2020.1.2,MacIntel,60,1,1,0.94001,1,1,1.53684,0,19,19,9,1,Stimuli/testStimuliCube/6u_s_11.png,Stimuli/testStimuliCube/6u_d_11.png,1,1,,,,,,,,,c,3D
,,,,,,,19,female,B,2020-05-14_16h57.08.437,Remembering_Displays,2020.1.2,MacIntel,60,1,0,0.851985,1,1,0.920265,0,20,20,8,1,Stimuli/testStimuliCube/6u_s_11.png,Stimuli/testStimuliCube/6u_s_11.png,0,9,,,,,,,,,c,3D
,,,,,,,19,female,B,2020-05-14_16h57.08.437,Remembering_Displays,2020.1.2,MacIntel,60,1,1,1.27317,1,1,0.73443,0,21,21,7,1,Stimuli/testStimuliCube/6u_s_10.png,Stimuli/testStimuliCube/6u_d_10.png,1,1,,,,,,,,,c,3D
,,,,,,,19,female,B,2020-05-14_16h57.08.437,Remembering_Displays,2020.1.2,MacIntel,60,1,1,1.119305,9,1,0.852715,0,22,22,1,1,Stimuli/testStimuliCube/6u_s_7.png,Stimuli/testStimuliCube/6u_d_7.png,1,1,,,,,,,,,c,3D
,,,,,,,19,female,B,2020-05-14_16h57.08.437,Remembering_Displays,2020.1.2,MacIntel,60,9,1,0.978985,1,1,0.567225,0,23,23,16,1,Stimuli/testStimuliCube/6u_s_9_s.png,Stimuli/testStimuliCube/6u_s_9_s.png,0,9,,,,,,,,,s,3D
,,,,,,,19,female,B,2020-05-14_16h57.08.437,Remembering_Displays,2020.1.2,MacIntel,60,,,,,,,,,,,,,,,,0,4,4,4,1,Stimuli/trialListCubes2.xlsx,Instructions/instr_19.png,Progress: 72 of 192 trials completed,,
,,,,,,,19,female,B,2020-05-14_16h57.08.437,Remembering_Displays,2020.1.2,MacIntel,60,9,1,0.95548,9,1,0.833625,0,0,0,20,1,Stimuli/testStimuliSquare/6u_s_17_s_2D.png,Stimuli/testStimuliSquare/6u_s_17_s_2D.png,0,9,,,,,,,,,s,2D
,,,,,,,19,female,B,2020-05-14_16h57.08.437,Remembering_Displays,2020.1.2,MacIntel,60,9,1,1.0359,9,1,0.73378,0,1,1,14,1,Stimuli/testStimuliSquare/6u_s_14_s_2D.png,Stimuli/testStimuliSquare/6u_s_14_s_2D.png,0,9,,,,,,,,,s,2D
,,,,,,,19,female,B,2020-05-14_16h57.08.437,Remembering_Displays,2020.1.2,MacIntel,60,9,0,0.714665,9,1,0.63431,0,2,2,13,1,Stimuli/testStimuliSquare/6u_s_13_s_2D.png,Stimuli/testStimuliSquare/6u_d_13_s_2D.png,1,1,,,,,,,,,s,2D
,,,,,,,19,female,B,2020-05-14_16h57.08.437,Remembering_Displays,2020.1.2,MacIntel,60,9,1,1.06958,9,1,0.90063,0,3,3,8,1,Stimuli/testStimuliSquare/6u_s_17_2D.png,Stimuli/testStimuliSquare/6u_s_17_2D.png,0,9,,,,,,,,,c,2D
,,,,,,,19,female,B,2020-05-14_16h57.08.437,Remembering_Displays,2020.1.2,MacIntel,60,1,1,0.98954,1,1,1.96641,0,4,4,3,1,Stimuli/testStimuliSquare/6u_s_14_2D.png,Stimuli/testStimuliSquare/6u_d_14_2D.png,1,1,,,,,,,,,c,2D
,,,,,,,19,female,B,2020-05-14_16h57.08.437,Remembering_Displays,2020.1.2,MacIntel,60,9,0,1.03503,9,1,1.12007,0,5,5,7,1,Stimuli/testStimuliSquare/6u_s_16_2D.png,Stimuli/testStimuliSquare/6u_d_16_2D.png,1,1,,,,,,,,,c,2D
,,,,,,,19,female,B,2020-05-14_16h57.08.437,Remembering_Displays,2020.1.2,MacIntel,60,1,0,1.06897,1,1,0.959775,0,6,6,0,1,Stimuli/testStimuliSquare/6u_s_13_2D.png,Stimuli/testStimuliSquare/6u_s_13_2D.png,0,9,,,,,,,,,c,2D
,,,,,,,19,female,B,2020-05-14_16h57.08.437,Remembering_Displays,2020.1.2,MacIntel,60,9,1,1.151835,9,1,0.73612,0,7,7,6,1,Stimuli/testStimuliSquare/6u_s_16_2D.png,Stimuli/testStimuliSquare/6u_s_16_2D.png,0,9,,,,,,,,,c,2D
,,,,,,,19,female,B,2020-05-14_16h57.08.437,Remembering_Displays,2020.1.2,MacIntel,60,1,1,1.09099,9,1,0.83401,0,8,8,17,1,Stimuli/testStimuliSquare/6u_s_15_s_2D.png,Stimuli/testStimuliSquare/6u_d_15_s_2D.png,1,1,,,,,,,,,s,2D
,,,,,,,19,female,B,2020-05-14_16h57.08.437,Remembering_Displays,2020.1.2,MacIntel,60,1,0,0.928015,9,1,0.69572,0,9,9,4,1,Stimuli/testStimuliSquare/6u_s_15_2D.png,Stimuli/testStimuliSquare/6u_s_15_2D.png,0,9,,,,,,,,,c,2D
,,,,,,,19,female,B,2020-05-14_16h57.08.437,Remembering_Displays,2020.1.2,MacIntel,60,9,1,0.900675,9,1,0.916635,0,10,10,12,1,Stimuli/testStimuliSquare/6u_s_13_s_2D.png,Stimuli/testStimuliSquare/6u_s_13_s_2D.png,0,9,,,,,,,,,s,2D
,,,,,,,19,female,B,2020-05-14_16h57.08.437,Remembering_Displays,2020.1.2,MacIntel,60,9,1,1.00134,9,1,0.860555,0,11,11,18,1,Stimuli/testStimuliSquare/6u_s_16_s_2D.png,Stimuli/testStimuliSquare/6u_s_16_s_2D.png,0,9,,,,,,,,,s,2D
,,,,,,,19,female,B,2020-05-14_16h57.08.437,Remembering_Displays,2020.1.2,MacIntel,60,1,1,0.81426,1,1,0.63785,0,12,12,19,1,Stimuli/testStimuliSquare/6u_s_16_s_2D.png,Stimuli/testStimuliSquare/6u_d_16_s_2D.png,1,1,,,,,,,,,s,2D
,,,,,,,19,female,B,2020-05-14_16h57.08.437,Remembering_Displays,2020.1.2,MacIntel,60,1,1,0.896975,1,1,0.52372,0,13,13,23,1,Stimuli/testStimuliSquare/6u_s_18_s_2D.png,Stimuli/testStimuliSquare/6u_d_18_s_2D.png,1,1,,,,,,,,,s,2D
,,,,,,,19,female,B,2020-05-14_16h57.08.437,Remembering_Displays,2020.1.2,MacIntel,60,1,1,0.89362,9,1,1.084255,0,14,14,1,1,Stimuli/testStimuliSquare/6u_s_13_2D.png,Stimuli/testStimuliSquare/6u_d_13_2D.png,1,1,,,,,,,,,c,2D
,,,,,,,19,female,B,2020-05-14_16h57.08.437,Remembering_Displays,2020.1.2,MacIntel,60,9,1,1.06189,9,1,0.823825,0,15,15,2,1,Stimuli/testStimuliSquare/6u_s_14_2D.png,Stimuli/testStimuliSquare/6u_s_14_2D.png,0,9,,,,,,,,,c,2D
,,,,,,,19,female,B,2020-05-14_16h57.08.437,Remembering_Displays,2020.1.2,MacIntel,60,9,1,0.73428,9,1,0.72459,0,16,16,22,1,Stimuli/testStimuliSquare/6u_s_18_s_2D.png,Stimuli/testStimuliSquare/6u_s_18_s_2D.png,0,9,,,,,,,,,s,2D
,,,,,,,19,female,B,2020-05-14_16h57.08.437,Remembering_Displays,2020.1.2,MacIntel,60,9,1,0.80327,1,1,0.434025,0,17,17,16,1,Stimuli/testStimuliSquare/6u_s_15_s_2D.png,Stimuli/testStimuliSquare/6u_s_15_s_2D.png,0,9,,,,,,,,,s,2D
,,,,,,,19,female,B,2020-05-14_16h57.08.437,Remembering_Displays,2020.1.2,MacIntel,60,1,1,1.159015,1,1,0.60096,0,18,18,15,1,Stimuli/testStimuliSquare/6u_s_14_s_2D.png,Stimuli/testStimuliSquare/6u_d_14_s_2D.png,1,1,,,,,,,,,s,2D
,,,,,,,19,female,B,2020-05-14_16h57.08.437,Remembering_Displays,2020.1.2,MacIntel,60,9,0,0.884435,9,0,0.79919,0,19,19,9,1,Stimuli/testStimuliSquare/6u_s_17_2D.png,Stimuli/testStimuliSquare/6u_d_17_2D.png,1,1,,,,,,,,,c,2D
,,,,,,,19,female,B,2020-05-14_16h57.08.437,Remembering_Displays,2020.1.2,MacIntel,60,1,1,1.13674,9,1,0.592605,0,20,20,11,1,Stimuli/testStimuliSquare/6u_s_18_2D.png,Stimuli/testStimuliSquare/6u_d_18_2D.png,1,1,,,,,,,,,c,2D
,,,,,,,19,female,B,2020-05-14_16h57.08.437,Remembering_Displays,2020.1.2,MacIntel,60,9,0,1.07744,1,1,0.71295,0,21,21,5,1,Stimuli/testStimuliSquare/6u_s_15_2D.png,Stimuli/testStimuliSquare/6u_d_15_2D.png,1,1,,,,,,,,,c,2D
,,,,,,,19,female,B,2020-05-14_16h57.08.437,Remembering_Displays,2020.1.2,MacIntel,60,1,1,1.027265,9,1,0.95688,0,22,22,21,1,Stimuli/testStimuliSquare/6u_s_17_s_2D.png,Stimuli/testStimuliSquare/6u_d_17_s_2D.png,1,1,,,,,,,,,s,2D
,,,,,,,19,female,B,2020-05-14_16h57.08.437,Remembering_Displays,2020.1.2,MacIntel,60,9,1,1.11988,1,1,0.88423,0,23,23,10,1,Stimuli/testStimuliSquare/6u_s_18_2D.png,Stimuli/testStimuliSquare/6u_s_18_2D.png,0,9,,,,,,,,,c,2D
,,,,,,,19,female,B,2020-05-14_16h57.08.437,Remembering_Displays,2020.1.2,MacIntel,60,,,,,,,,,,,,,,,,0,5,5,5,1,Stimuli/trialListSquares3.xlsx,Instructions/instr_18.png,Progress: 96 of 192 trials completed,,
,,,,,,,19,female,B,2020-05-14_16h57.08.437,Remembering_Displays,2020.1.2,MacIntel,60,9,1,1.14541,9,1,1.37376,0,0,0,22,1,Stimuli/testStimuliCube/6u_s_18_s.png,Stimuli/testStimuliCube/6u_s_18_s.png,0,9,,,,,,,,,s,3D
,,,,,,,19,female,B,2020-05-14_16h57.08.437,Remembering_Displays,2020.1.2,MacIntel,60,9,0,1.03706,1,1,0.51849,0,1,1,7,1,Stimuli/testStimuliCube/6u_s_16.png,Stimuli/testStimuliCube/6u_d_16.png,1,1,,,,,,,,,c,3D
,,,,,,,19,female,B,2020-05-14_16h57.08.437,Remembering_Displays,2020.1.2,MacIntel,60,1,1,1.20909,9,1,0.76697,0,2,2,9,1,Stimuli/testStimuliCube/6u_s_17.png,Stimuli/testStimuliCube/6u_d_17.png,1,1,,,,,,,,,c,3D
,,,,,,,19,female,B,2020-05-14_16h57.08.437,Remembering_Displays,2020.1.2,MacIntel,60,9,1,0.96857,9,1,0.717385,0,3,3,10,1,Stimuli/testStimuliCube/6u_s_18.png,Stimuli/testStimuliCube/6u_s_18.png,0,9,,,,,,,,,c,3D
,,,,,,,19,female,B,2020-05-14_16h57.08.437,Remembering_Displays,2020.1.2,MacIntel,60,9,1,0.81356,1,1,0.44456,0,4,4,8,1,Stimuli/testStimuliCube/6u_s_17.png,Stimuli/testStimuliCube/6u_s_17.png,0,9,,,,,,,,,c,3D
,,,,,,,19,female,B,2020-05-14_16h57.08.437,Remembering_Displays,2020.1.2,MacIntel,60,9,0,0.83364,1,1,0.832745,0,5,5,13,1,Stimuli/testStimuliCube/6u_s_13_s.png,Stimuli/testStimuliCube/6u_d_13_s.png,1,1,,,,,,,,,s,3D
,,,,,,,19,female,B,2020-05-14_16h57.08.437,Remembering_Displays,2020.1.2,MacIntel,60,9,1,0.64794,1,1,0.55731,0,6,6,12,1,Stimuli/testStimuliCube/6u_s_13_s.png,Stimuli/testStimuliCube/6u_s_13_s.png,0,9,,,,,,,,,s,3D
,,,,,,,19,female,B,2020-05-14_16h57.08.437,Remembering_Displays,2020.1.2,MacIntel,60,1,1,1.161975,1,1,3.201315,0,7,7,23,1,Stimuli/testStimuliCube/6u_s_18_s.png,Stimuli/testStimuliCube/6u_d_18_s.png,1,1,,,,,,,,,s,3D
,,,,,,,19,female,B,2020-05-14_16h57.08.437,Remembering_Displays,2020.1.2,MacIntel,60,1,1,0.913285,1,1,0.466745,0,8,8,19,1,Stimuli/testStimuliCube/6u_s_16_s.png,Stimuli/testStimuliCube/6u_d_16_s.png,1,1,,,,,,,,,s,3D
,,,,,,,19,female,B,2020-05-14_16h57.08.437,Remembering_Displays,2020.1.2,MacIntel,60,9,1,0.768635,1,1,0.776215,0,9,9,20,1,Stimuli/testStimuliCube/6u_s_17_s.png,Stimuli/testStimuliCube/6u_s_17_s.png,0,9,,,,,,,,,s,3D
,,,,,,,19,female,B,2020-05-14_16h57.08.437,Remembering_Displays,2020.1.2,MacIntel,60,1,1,1.009025,1,1,2.0344,0,10,10,17,1,Stimuli/testStimuliCube/6u_s_15_s.png,Stimuli/testStimuliCube/6u_d_15_s.png,1,1,,,,,,,,,s,3D
,,,,,,,19,female,B,2020-05-14_16h57.08.437,Remembering_Displays,2020.1.2,MacIntel,60,9,1,1.13502,1,1,0.787495,0,11,11,0,1,Stimuli/testStimuliCube/6u_s_13.png,Stimuli/testStimuliCube/6u_s_13.png,0,9,,,,,,,,,c,3D
,,,,,,,19,female,B,2020-05-14_16h57.08.437,Remembering_Displays,2020.1.2,MacIntel,60,9,1,0.871265,9,1,3.60035,0,12,12,16,1,Stimuli/testStimuliCube/6u_s_15_s.png,Stimuli/testStimuliCube/6u_s_15_s.png,0,9,,,,,,,,,s,3D
,,,,,,,19,female,B,2020-05-14_16h57.08.437,Remembering_Displays,2020.1.2,MacIntel,60,9,1,0.667905,1,1,1.15631,0,13,13,4,1,Stimuli/testStimuliCube/6u_s_15.png,Stimuli/testStimuliCube/6u_s_15.png,0,9,,,,,,,,,c,3D
,,,,,,,19,female,B,2020-05-14_16h57.08.437,Remembering_Displays,2020.1.2,MacIntel,60,1,1,0.912755,1,1,1.526425,0,14,14,3,1,Stimuli/testStimuliCube/6u_s_14.png,Stimuli/testStimuliCube/6u_d_14.png,1,1,,,,,,,,,c,3D
,,,,,,,19,female,B,2020-05-14_16h57.08.437,Remembering_Displays,2020.1.2,MacIntel,60,1,1,1.10803,9,1,1.23462,0,15,15,1,1,Stimuli/testStimuliCube/6u_s_13.png,Stimuli/testStimuliCube/6u_d_13.png,1,1,,,,,,,,,c,3D
,,,,,,,19,female,B,2020-05-14_16h57.08.437,Remembering_Displays,2020.1.2,MacIntel,60,1,1,0.92658,9,1,1.312535,0,16,16,5,1,Stimuli/testStimuliCube/6u_s_15.png,Stimuli/testStimuliCube/6u_d_15.png,1,1,,,,,,,,,c,3D
,,,,,,,19,female,B,2020-05-14_16h57.08.437,Remembering_Displays,2020.1.2,MacIntel,60,9,1,1.10229,1,1,1.92537,0,17,17,2,1,Stimuli/testStimuliCube/6u_s_14.png,Stimuli/testStimuliCube/6u_s_14.png,0,9,,,,,,,,,c,3D
,,,,,,,19,female,B,2020-05-14_16h57.08.437,Remembering_Displays,2020.1.2,MacIntel,60,9,1,0.901315,1,1,0.63722,0,18,18,18,1,Stimuli/testStimuliCube/6u_s_16_s.png,Stimuli/testStimuliCube/6u_s_16_s.png,0,9,,,,,,,,,s,3D
,,,,,,,19,female,B,2020-05-14_16h57.08.437,Remembering_Displays,2020.1.2,MacIntel,60,1,1,1.059555,1,1,1.184505,0,19,19,21,1,Stimuli/testStimuliCube/6u_s_17_s.png,Stimuli/testStimuliCube/6u_d_17_s.png,1,1,,,,,,,,,s,3D
,,,,,,,19,female,B,2020-05-14_16h57.08.437,Remembering_Displays,2020.1.2,MacIntel,60,1,1,0.948845,9,1,2.160735,0,20,20,15,1,Stimuli/testStimuliCube/6u_s_14_s.png,Stimuli/testStimuliCube/6u_d_14_s.png,1,1,,,,,,,,,s,3D
,,,,,,,19,female,B,2020-05-14_16h57.08.437,Remembering_Displays,2020.1.2,MacIntel,60,1,1,1.162445,9,1,0.76734,0,21,21,11,1,Stimuli/testStimuliCube/6u_s_18.png,Stimuli/testStimuliCube/6u_d_18.png,1,1,,,,,,,,,c,3D
,,,,,,,19,female,B,2020-05-14_16h57.08.437,Remembering_Displays,2020.1.2,MacIntel,60,9,1,1.018915,9,1,1.66316,0,22,22,14,1,Stimuli/testStimuliCube/6u_s_14_s.png,Stimuli/testStimuliCube/6u_s_14_s.png,0,9,,,,,,,,,s,3D
,,,,,,,19,female,B,2020-05-14_16h57.08.437,Remembering_Displays,2020.1.2,MacIntel,60,9,1,0.76876,9,1,1.28347,0,23,23,6,1,Stimuli/testStimuliCube/6u_s_16.png,Stimuli/testStimuliCube/6u_s_16.png,0,9,,,,,,,,,c,3D
,,,,,,,19,female,B,2020-05-14_16h57.08.437,Remembering_Displays,2020.1.2,MacIntel,60,,,,,,,,,,,,,,,,0,6,6,6,1,Stimuli/trialListCubes3.xlsx,Instructions/instr_19.png,Progress: 120 of 192 trials completed,,
,,,,,,,19,female,B,2020-05-14_16h57.08.437,Remembering_Displays,2020.1.2,MacIntel,60,9,1,0.80657,9,1,0.95106,0,0,0,22,1,Stimuli/testStimuliSquare/6u_s_12_s_2D.png,Stimuli/testStimuliSquare/6u_s_12_s_2D.png,0,9,,,,,,,,,s,2D
,,,,,,,19,female,B,2020-05-14_16h57.08.437,Remembering_Displays,2020.1.2,MacIntel,60,9,0,0.68265,9,1,0.84496,0,1,1,15,1,Stimuli/testStimuliSquare/6u_s_8_s_2D.png,Stimuli/testStimuliSquare/6u_d_8_s_2D.png,1,1,,,,,,,,,s,2D
,,,,,,,19,female,B,2020-05-14_16h57.08.437,Remembering_Displays,2020.1.2,MacIntel,60,1,1,0.74733,9,1,0.534665,0,2,2,19,1,Stimuli/testStimuliSquare/6u_s_10_s_2D.png,Stimuli/testStimuliSquare/6u_d_10_s_2D.png,1,1,,,,,,,,,s,2D
,,,,,,,19,female,B,2020-05-14_16h57.08.437,Remembering_Displays,2020.1.2,MacIntel,60,1,0,1.24658,9,1,0.676245,0,3,3,12,1,Stimuli/testStimuliSquare/6u_s_7_s_2D.png,Stimuli/testStimuliSquare/6u_s_7_s_2D.png,0,9,,,,,,,,,s,2D
,,,,,,,19,female,B,2020-05-14_16h57.08.437,Remembering_Displays,2020.1.2,MacIntel,60,9,1,0.752205,9,1,1.551235,0,4,4,18,1,Stimuli/testStimuliSquare/6u_s_10_s_2D.png,Stimuli/testStimuliSquare/6u_s_10_s_2D.png,0,9,,,,,,,,,s,2D
,,,,,,,19,female,B,2020-05-14_16h57.08.437,Remembering_Displays,2020.1.2,MacIntel,60,1,1,0.901795,1,1,2.61774,0,5,5,5,1,Stimuli/testStimuliSquare/6u_s_9_2D.png,Stimuli/testStimuliSquare/6u_d_9_2D.png,1,1,,,,,,,,,c,2D
,,,,,,,19,female,B,2020-05-14_16h57.08.437,Remembering_Displays,2020.1.2,MacIntel,60,9,1,1.35132,9,1,1.13144,0,6,6,8,1,Stimuli/testStimuliSquare/6u_s_11_2D.png,Stimuli/testStimuliSquare/6u_s_11_2D.png,0,9,,,,,,,,,c,2D
,,,,,,,19,female,B,2020-05-14_16h57.08.437,Remembering_Displays,2020.1.2,MacIntel,60,9,1,0.902285,9,1,0.574835,0,7,7,10,1,Stimuli/testStimuliSquare/6u_s_12_2D.png,Stimuli/testStimuliSquare/6u_s_12_2D.png,0,9,,,,,,,,,c,2D
,,,,,,,19,female,B,2020-05-14_16h57.08.437,Remembering_Displays,2020.1.2,MacIntel,60,1,1,0.579255,9,1,0.951945,0,8,8,21,1,Stimuli/testStimuliSquare/6u_s_11_s_2D.png,Stimuli/testStimuliSquare/6u_d_11_s_2D.png,1,1,,,,,,,,,s,2D
,,,,,,,19,female,B,2020-05-14_16h57.08.437,Remembering_Displays,2020.1.2,MacIntel,60,9,1,1.00008,9,1,0.706,0,9,9,6,1,Stimuli/testStimuliSquare/6u_s_10_2D.png,Stimuli/testStimuliSquare/6u_s_10_2D.png,0,9,,,,,,,,,c,2D
,,,,,,,19,female,B,2020-05-14_16h57.08.437,Remembering_Displays,2020.1.2,MacIntel,60,1,1,0.7414,1,1,3.23319,0,10,10,13,1,Stimuli/testStimuliSquare/6u_s_7_s_2D.png,Stimuli/testStimuliSquare/6u_d_7_s_2D.png,1,1,,,,,,,,,s,2D
,,,,,,,19,female,B,2020-05-14_16h57.08.437,Remembering_Displays,2020.1.2,MacIntel,60,1,1,1.04208,9,1,0.462855,0,11,11,9,1,Stimuli/testStimuliSquare/6u_s_11_2D.png,Stimuli/testStimuliSquare/6u_d_11_2D.png,1,1,,,,,,,,,c,2D
,,,,,,,19,female,B,2020-05-14_16h57.08.437,Remembering_Displays,2020.1.2,MacIntel,60,9,1,0.93632,1,1,0.81978,0,12,12,2,1,Stimuli/testStimuliSquare/6u_s_8_2D.png,Stimuli/testStimuliSquare/6u_s_8_2D.png,0,9,,,,,,,,,c,2D
,,,,,,,19,female,B,2020-05-14_16h57.08.437,Remembering_Displays,2020.1.2,MacIntel,60,1,1,0.821985,9,1,0.473215,0,13,13,11,1,Stimuli/testStimuliSquare/6u_s_12_2D.png,Stimuli/testStimuliSquare/6u_d_12_2D.png,1,1,,,,,,,,,c,2D
,,,,,,,19,female,B,2020-05-14_16h57.08.437,Remembering_Displays,2020.1.2,MacIntel,60,1,1,0.89231,1,1,0.68766,0,14,14,3,1,Stimuli/testStimuliSquare/6u_s_8_2D.png,Stimuli/testStimuliSquare/6u_d_8_2D.png,1,1,,,,,,,,,c,2D
,,,,,,,19,female,B,2020-05-14_16h57.08.437,Remembering_Displays,2020.1.2,MacIntel,60,1,1,0.9459,1,1,0.713555,0,15,15,17,1,Stimuli/testStimuliSquare/6u_s_9_s_2D.png,Stimuli/testStimuliSquare/6u_d_9_s_2D.png,1,1,,,,,,,,,s,2D
,,,,,,,19,female,B,2020-05-14_16h57.08.437,Remembering_Displays,2020.1.2,MacIntel,60,9,1,0.872935,9,1,0.722755,0,16,16,20,1,Stimuli/testStimuliSquare/6u_s_11_s_2D.png,Stimuli/testStimuliSquare/6u_s_11_s_2D.png,0,9,,,,,,,,,s,2D
,,,,,,,19,female,B,2020-05-14_16h57.08.437,Remembering_Displays,2020.1.2,MacIntel,60,9,1,0.633015,9,1,0.61143,0,17,17,4,1,Stimuli/testStimuliSquare/6u_s_9_2D.png,Stimuli/testStimuliSquare/6u_s_9_2D.png,0,9,,,,,,,,,c,2D
,,,,,,,19,female,B,2020-05-14_16h57.08.437,Remembering_Displays,2020.1.2,MacIntel,60,9,1,0.66201,1,1,0.70994,0,18,18,16,1,Stimuli/testStimuliSquare/6u_s_9_s_2D.png,Stimuli/testStimuliSquare/6u_s_9_s_2D.png,0,9,,,,,,,,,s,2D
,,,,,,,19,female,B,2020-05-14_16h57.08.437,Remembering_Displays,2020.1.2,MacIntel,60,9,0,0.863545,9,1,1.384265,0,19,19,23,1,Stimuli/testStimuliSquare/6u_s_12_s_2D.png,Stimuli/testStimuliSquare/6u_d_12_s_2D.png,1,1,,,,,,,,,s,2D
,,,,,,,19,female,B,2020-05-14_16h57.08.437,Remembering_Displays,2020.1.2,MacIntel,60,1,1,0.79213,9,1,0.487035,0,20,20,1,1,Stimuli/testStimuliSquare/6u_s_7_2D.png,Stimuli/testStimuliSquare/6u_d_7_2D.png,1,1,,,,,,,,,c,2D
,,,,,,,19,female,B,2020-05-14_16h57.08.437,Remembering_Displays,2020.1.2,MacIntel,60,9,0,0.99175,1,1,0.86752,0,21,21,7,1,Stimuli/testStimuliSquare/6u_s_10_2D.png,Stimuli/testStimuliSquare/6u_d_10_2D.png,1,1,,,,,,,,,c,2D
,,,,,,,19,female,B,2020-05-14_16h57.08.437,Remembering_Displays,2020.1.2,MacIntel,60,1,0,1.269745,1,1,1.52739,0,22,22,0,1,Stimuli/testStimuliSquare/6u_s_7_2D.png,Stimuli/testStimuliSquare/6u_s_7_2D.png,0,9,,,,,,,,,c,2D
,,,,,,,19,female,B,2020-05-14_16h57.08.437,Remembering_Displays,2020.1.2,MacIntel,60,9,1,0.5991,9,0,2.40029,0,23,23,14,1,Stimuli/testStimuliSquare/6u_s_8_s_2D.png,Stimuli/testStimuliSquare/6u_s_8_s_2D.png,0,9,,,,,,,,,s,2D
,,,,,,,19,female,B,2020-05-14_16h57.08.437,Remembering_Displays,2020.1.2,MacIntel,60,,,,,,,,,,,,,,,,0,7,7,7,1,Stimuli/trialListSquares2.xlsx,Instructions/instr_18.png,Progress: 144 of 192 trials completed,,
,,,,,,,19,female,B,2020-05-14_16h57.08.437,Remembering_Displays,2020.1.2,MacIntel,60,9,1,0.651985,9,1,1.181,0,0,0,0,1,Stimuli/testStimuliCube/6u_s_19.png,Stimuli/testStimuliCube/6u_s_19.png,0,9,,,,,,,,,c,3D
,,,,,,,19,female,B,2020-05-14_16h57.08.437,Remembering_Displays,2020.1.2,MacIntel,60,1,1,0.65312,1,1,0.70945,0,1,1,3,1,Stimuli/testStimuliCube/6u_s_20.png,Stimuli/testStimuliCube/6u_d_20.png,1,1,,,,,,,,,c,3D
,,,,,,,19,female,B,2020-05-14_16h57.08.437,Remembering_Displays,2020.1.2,MacIntel,60,9,1,0.4167,9,1,0.553745,0,2,2,10,1,Stimuli/testStimuliCube/6u_s_24.png,Stimuli/testStimuliCube/6u_s_24.png,0,9,,,,,,,,,c,3D
,,,,,,,19,female,B,2020-05-14_16h57.08.437,Remembering_Displays,2020.1.2,MacIntel,60,9,1,0.62012,1,1,0.667255,0,3,3,14,1,Stimuli/testStimuliCube/6u_s_20_s.png,Stimuli/testStimuliCube/6u_s_20_s.png,0,9,,,,,,,,,s,3D
,,,,,,,19,female,B,2020-05-14_16h57.08.437,Remembering_Displays,2020.1.2,MacIntel,60,9,1,0.71914,9,1,0.66493,0,4,4,4,1,Stimuli/testStimuliCube/6u_s_21.png,Stimuli/testStimuliCube/6u_s_21.png,0,9,,,,,,,,,c,3D
,,,,,,,19,female,B,2020-05-14_16h57.08.437,Remembering_Displays,2020.1.2,MacIntel,60,9,1,1.16785,9,1,1.200835,0,5,5,18,1,Stimuli/testStimuliCube/6u_s_22_s.png,Stimuli/testStimuliCube/6u_s_22_s.png,0,9,,,,,,,,,s,3D
,,,,,,,19,female,B,2020-05-14_16h57.08.437,Remembering_Displays,2020.1.2,MacIntel,60,9,1,0.78932,9,1,0.39186,0,6,6,12,1,Stimuli/testStimuliCube/6u_s_19_s.png,Stimuli/testStimuliCube/6u_s_19_s.png,0,9,,,,,,,,,s,3D
,,,,,,,19,female,B,2020-05-14_16h57.08.437,Remembering_Displays,2020.1.2,MacIntel,60,9,1,0.890975,9,1,0.3454,0,7,7,16,1,Stimuli/testStimuliCube/6u_s_21_s.png,Stimuli/testStimuliCube/6u_s_21_s.png,0,9,,,,,,,,,s,3D
,,,,,,,19,female,B,2020-05-14_16h57.08.437,Remembering_Displays,2020.1.2,MacIntel,60,9,1,0.65279,1,1,2.157075,0,8,8,6,1,Stimuli/testStimuliCube/6u_s_22.png,Stimuli/testStimuliCube/6u_s_22.png,0,9,,,,,,,,,c,3D
,,,,,,,19,female,B,2020-05-14_16h57.08.437,Remembering_Displays,2020.1.2,MacIntel,60,1,1,0.598345,1,1,0.629355,0,9,9,5,1,Stimuli/testStimuliCube/6u_s_21.png,Stimuli/testStimuliCube/6u_d_21.png,1,1,,,,,,,,,c,3D
,,,,,,,19,female,B,2020-05-14_16h57.08.437,Remembering_Displays,2020.1.2,MacIntel,60,1,1,0.58131,1,1,0.82307,0,10,10,1,1,Stimuli/testStimuliCube/6u_s_19.png,Stimuli/testStimuliCube/6u_d_19.png,1,1,,,,,,,,,c,3D
,,,,,,,19,female,B,2020-05-14_16h57.08.437,Remembering_Displays,2020.1.2,MacIntel,60,9,0,1.35105,9,1,0.78991,0,11,11,13,1,Stimuli/testStimuliCube/6u_s_19_s.png,Stimuli/testStimuliCube/6u_d_19_s.png,1,1,,,,,,,,,s,3D
,,,,,,,19,female,B,2020-05-14_16h57.08.437,Remembering_Displays,2020.1.2,MacIntel,60,1,1,0.61858,9,1,0.556065,0,12,12,15,1,Stimuli/testStimuliCube/6u_s_20_s.png,Stimuli/testStimuliCube/6u_d_20_s.png,1,1,,,,,,,,,s,3D
,,,,,,,19,female,B,2020-05-14_16h57.08.437,Remembering_Displays,2020.1.2,MacIntel,60,1,1,0.59165,9,1,1.56721,0,13,13,7,1,Stimuli/testStimuliCube/6u_s_22.png,Stimuli/testStimuliCube/6u_d_22.png,1,1,,,,,,,,,c,3D
,,,,,,,19,female,B,2020-05-14_16h57.08.437,Remembering_Displays,2020.1.2,MacIntel,60,9,1,0.8241,1,1,0.48584,0,14,14,20,1,Stimuli/testStimuliCube/6u_s_23_s.png,Stimuli/testStimuliCube/6u_s_23_s.png,0,9,,,,,,,,,s,3D
,,,,,,,19,female,B,2020-05-14_16h57.08.437,Remembering_Displays,2020.1.2,MacIntel,60,9,0,0.931145,1,1,4.03416,0,15,15,9,1,Stimuli/testStimuliCube/6u_s_23.png,Stimuli/testStimuliCube/6u_d_23.png,1,1,,,,,,,,,c,3D
,,,,,,,19,female,B,2020-05-14_16h57.08.437,Remembering_Displays,2020.1.2,MacIntel,60,1,1,0.66871,9,1,0.733225,0,16,16,19,1,Stimuli/testStimuliCube/6u_s_22_s.png,Stimuli/testStimuliCube/6u_d_22_s.png,1,1,,,,,,,,,s,3D
,,,,,,,19,female,B,2020-05-14_16h57.08.437,Remembering_Displays,2020.1.2,MacIntel,60,9,1,0.65186,9,1,0.450595,0,17,17,22,1,Stimuli/testStimuliCube/6u_s_24_s.png,Stimuli/testStimuliCube/6u_s_24_s.png,0,9,,,,,,,,,s,3D
,,,,,,,19,female,B,2020-05-14_16h57.08.437,Remembering_Displays,2020.1.2,MacIntel,60,9,1,0.62492,1,1,4.216905,0,18,18,2,1,Stimuli/testStimuliCube/6u_s_20.png,Stimuli/testStimuliCube/6u_s_20.png,0,9,,,,,,,,,c,3D
,,,,,,,19,female,B,2020-05-14_16h57.08.437,Remembering_Displays,2020.1.2,MacIntel,60,1,1,0.85187,1,1,0.61733,0,19,19,21,1,Stimuli/testStimuliCube/6u_s_23_s.png,Stimuli/testStimuliCube/6u_d_23_s.png,1,1,,,,,,,,,s,3D
,,,,,,,19,female,B,2020-05-14_16h57.08.437,Remembering_Displays,2020.1.2,MacIntel,60,1,1,0.78489,9,1,0.665665,0,20,20,23,1,Stimuli/testStimuliCube/6u_s_24_s.png,Stimuli/testStimuliCube/6u_d_24_s.png,1,1,,,,,,,,,s,3D
,,,,,,,19,female,B,2020-05-14_16h57.08.437,Remembering_Displays,2020.1.2,MacIntel,60,1,1,0.92768,1,1,0.417,0,21,21,17,1,Stimuli/testStimuliCube/6u_s_21_s.png,Stimuli/testStimuliCube/6u_d_21_s.png,1,1,,,,,,,,,s,3D
,,,,,,,19,female,B,2020-05-14_16h57.08.437,Remembering_Displays,2020.1.2,MacIntel,60,1,1,0.66192,1,1,0.46668,0,22,22,11,1,Stimuli/testStimuliCube/6u_s_24.png,Stimuli/testStimuliCube/6u_d_24.png,1,1,,,,,,,,,c,3D
,,,,,,,19,female,B,2020-05-14_16h57.08.437,Remembering_Displays,2020.1.2,MacIntel,60,9,1,0.701095,9,1,0.45997,0,23,23,8,1,Stimuli/testStimuliCube/6u_s_23.png,Stimuli/testStimuliCube/6u_s_23.png,0,9,,,,,,,,,c,3D
,,,,,,,19,female,B,2020-05-14_16h57.08.437,Remembering_Displays,2020.1.2,MacIntel,60,,,,,,,,,,,,,,,,0,8,8,8,1,Stimuli/trialListCubes4.xlsx,Instructions/instr_19.png,Progress: 168 of 192 trials completed,,
,,,,,,,19,female,B,2020-05-14_16h57.08.437,Remembering_Displays,2020.1.2,MacIntel,60,1,1,0.681555,1,1,1.6071,0,0,0,17,1,Stimuli/testStimuliSquare/6u_s_3_s_2D.png,Stimuli/testStimuliSquare/6u_d_3_s_2D.png,1,1,,,,,,,,,s,2D
,,,,,,,19,female,B,2020-05-14_16h57.08.437,Remembering_Displays,2020.1.2,MacIntel,60,1,1,0.63941,9,1,0.500825,0,1,1,15,1,Stimuli/testStimuliSquare/6u_s_2_s_2D.png,Stimuli/testStimuliSquare/6u_d_2_s_2D.png,1,1,,,,,,,,,s,2D
,,,,,,,19,female,B,2020-05-14_16h57.08.437,Remembering_Displays,2020.1.2,MacIntel,60,1,1,0.74131,9,1,1.634015,0,2,2,9,1,Stimuli/testStimuliSquare/6u_s_5_2D.png,Stimuli/testStimuliSquare/6u_d_5_2D.png,1,1,,,,,,,,,c,2D
,,,,,,,19,female,B,2020-05-14_16h57.08.437,Remembering_Displays,2020.1.2,MacIntel,60,9,0,0.94036,9,1,0.73373,0,3,3,3,1,Stimuli/testStimuliSquare/6u_s_2_2D.png,Stimuli/testStimuliSquare/6u_d_2_2D.png,1,1,,,,,,,,,c,2D
,,,,,,,19,female,B,2020-05-14_16h57.08.437,Remembering_Displays,2020.1.2,MacIntel,60,9,1,0.563135,1,1,0.8517,0,4,4,14,1,Stimuli/testStimuliSquare/6u_s_2_s_2D.png,Stimuli/testStimuliSquare/6u_s_2_s_2D.png,0,9,,,,,,,,,s,2D
,,,,,,,19,female,B,2020-05-14_16h57.08.437,Remembering_Displays,2020.1.2,MacIntel,60,1,1,0.69264,1,1,0.715545,0,5,5,19,1,Stimuli/testStimuliSquare/6u_s_4_s_2D.png,Stimuli/testStimuliSquare/6u_d_4_s_2D.png,1,1,,,,,,,,,s,2D
,,,,,,,19,female,B,2020-05-14_16h57.08.437,Remembering_Displays,2020.1.2,MacIntel,60,1,1,0.78061,9,1,0.51764,0,6,6,13,1,Stimuli/testStimuliSquare/6u_s_1_s_2D.png,Stimuli/testStimuliSquare/6u_d_1_s_2D.png,1,1,,,,,,,,,s,2D
,,,,,,,19,female,B,2020-05-14_16h57.08.437,Remembering_Displays,2020.1.2,MacIntel,60,9,1,0.635735,9,1,0.87825,0,7,7,0,1,Stimuli/testStimuliSquare/6u_s_1_2D.png,Stimuli/testStimuliSquare/6u_s_1_2D.png,0,9,,,,,,,,,c,2D
,,,,,,,19,female,B,2020-05-14_16h57.08.437,Remembering_Displays,2020.1.2,MacIntel,60,1,1,0.585385,1,1,0.493715,0,8,8,1,1,Stimuli/testStimuliSquare/6u_s_1_2D.png,Stimuli/testStimuliSquare/6u_d_1_2D.png,1,1,,,,,,,,,c,2D
,,,,,,,19,female,B,2020-05-14_16h57.08.437,Remembering_Displays,2020.1.2,MacIntel,60,9,1,0.684595,9,1,0.874125,0,9,9,12,1,Stimuli/testStimuliSquare/6u_s_1_s_2D.png,Stimuli/testStimuliSquare/6u_s_1_s_2D.png,0,9,,,,,,,,,s,2D
,,,,,,,19,female,B,2020-05-14_16h57.08.437,Remembering_Displays,2020.1.2,MacIntel,60,9,1,0.714595,1,1,0.911805,0,10,10,2,1,Stimuli/testStimuliSquare/6u_s_2_2D.png,Stimuli/testStimuliSquare/6u_s_2_2D.png,0,9,,,,,,,,,c,2D
,,,,,,,19,female,B,2020-05-14_16h57.08.437,Remembering_Displays,2020.1.2,MacIntel,60,1,1,0.64918,1,1,1.11117,0,11,11,21,1,Stimuli/testStimuliSquare/6u_s_5_s_2D.png,Stimuli/testStimuliSquare/6u_d_5_s_2D.png,1,1,,,,,,,,,s,2D
,,,,,,,19,female,B,2020-05-14_16h57.08.437,Remembering_Displays,2020.1.2,MacIntel,60,9,1,1.043545,1,1,0.63416,0,12,12,16,1,Stimuli/testStimuliSquare/6u_s_3_s_2D.png,Stimuli/testStimuliSquare/6u_s_3_s_2D.png,0,9,,,,,,,,,s,2D
,,,,,,,19,female,B,2020-05-14_16h57.08.437,Remembering_Displays,2020.1.2,MacIntel,60,1,1,1.183,9,1,0.517245,0,13,13,23,1,Stimuli/testStimuliSquare/6u_s_6_s_2D.png,Stimuli/testStimuliSquare/6u_d_6_s_2D.png,1,1,,,,,,,,,s,2D
,,,,,,,19,female,B,2020-05-14_16h57.08.437,Remembering_Displays,2020.1.2,MacIntel,60,9,1,0.60851,9,1,1.08901,0,14,14,18,1,Stimuli/testStimuliSquare/6u_s_4_s_2D.png,Stimuli/testStimuliSquare/6u_s_4_s_2D.png,0,9,,,,,,,,,s,2D
,,,,,,,19,female,B,2020-05-14_16h57.08.437,Remembering_Displays,2020.1.2,MacIntel,60,9,1,0.90119,1,1,0.951425,0,15,15,4,1,Stimuli/testStimuliSquare/6u_s_3_2D.png,Stimuli/testStimuliSquare/6u_s_3_2D.png,0,9,,,,,,,,,c,2D
,,,,,,,19,female,B,2020-05-14_16h57.08.437,Remembering_Displays,2020.1.2,MacIntel,60,9,1,0.65708,1,1,0.755405,0,16,16,10,1,Stimuli/testStimuliSquare/6u_s_6_2D.png,Stimuli/testStimuliSquare/6u_s_6_2D.png,0,9,,,,,,,,,c,2D
,,,,,,,19,female,B,2020-05-14_16h57.08.437,Remembering_Displays,2020.1.2,MacIntel,60,1,1,0.56863,1,1,2.27155,0,17,17,5,1,Stimuli/testStimuliSquare/6u_s_3_2D.png,Stimuli/testStimuliSquare/6u_d_3_2D.png,1,1,,,,,,,,,c,2D
,,,,,,,19,female,B,2020-05-14_16h57.08.437,Remembering_Displays,2020.1.2,MacIntel,60,9,1,0.76962,1,1,0.867975,0,18,18,8,1,Stimuli/testStimuliSquare/6u_s_5_2D.png,Stimuli/testStimuliSquare/6u_s_5_2D.png,0,9,,,,,,,,,c,2D
,,,,,,,19,female,B,2020-05-14_16h57.08.437,Remembering_Displays,2020.1.2,MacIntel,60,1,1,0.649775,1,1,0.774255,0,19,19,11,1,Stimuli/testStimuliSquare/6u_s_6_2D.png,Stimuli/testStimuliSquare/6u_d_6_2D.png,1,1,,,,,,,,,c,2D
,,,,,,,19,female,B,2020-05-14_16h57.08.437,Remembering_Displays,2020.1.2,MacIntel,60,9,1,0.84323,1,1,1.135285,0,20,20,6,1,Stimuli/testStimuliSquare/6u_s_4_2D.png,Stimuli/testStimuliSquare/6u_s_4_2D.png,0,9,,,,,,,,,c,2D
,,,,,,,19,female,B,2020-05-14_16h57.08.437,Remembering_Displays,2020.1.2,MacIntel,60,9,1,0.696005,9,1,1.465575,0,21,21,20,1,Stimuli/testStimuliSquare/6u_s_5_s_2D.png,Stimuli/testStimuliSquare/6u_s_5_s_2D.png,0,9,,,,,,,,,s,2D
,,,,,,,19,female,B,2020-05-14_16h57.08.437,Remembering_Displays,2020.1.2,MacIntel,60,1,1,0.80952,1,1,0.5172,0,22,22,7,1,Stimuli/testStimuliSquare/6u_s_4_2D.png,Stimuli/testStimuliSquare/6u_d_4_2D.png,1,1,,,,,,,,,c,2D
,,,,,,,19,female,B,2020-05-14_16h57.08.437,Remembering_Displays,2020.1.2,MacIntel,60,9,1,0.5346,9,1,1.829155,0,23,23,22,1,Stimuli/testStimuliSquare/6u_s_6_s_2D.png,Stimuli/testStimuliSquare/6u_s_6_s_2D.png,0,9,,,,,,,,,s,2D