instr_Loop.thisRepN,instr_Loop.thisTrialN,instr_Loop.thisN,instr_Loop.thisIndex,instr_Loop.ran,instructionImage,time,age,sex (female/male),order,date,expName,psychopyVersion,OS,frameRate,struc_judge_respond.keys,struc_judge_respond.corr,struc_judge_respond.rt,dual_respond.keys,dual_respond.corr,dual_respond.rt,trials.thisRepN,trials.thisTrialN,trials.thisN,trials.thisIndex,trials.ran,stim1,stim2,isAnyChange,corrAns,selectBlock.thisRepN,selectBlock.thisTrialN,selectBlock.thisN,selectBlock.thisIndex,selectBlock.ran,condsFile,condsImage,remaining,connected,dimensionality
0,0,0,0,1,Instructions/consent.png,3,19,female,B,2020-05-18_14h46.38.595,Remembering_Displays,2020.1.2,MacIntel,60,,,,,,,,,,,,,,,,,,,,,,,,,
0,1,1,1,1,Instructions/instr_1.png,5,19,female,B,2020-05-18_14h46.38.595,Remembering_Displays,2020.1.2,MacIntel,60,,,,,,,,,,,,,,,,,,,,,,,,,
0,2,2,2,1,Instructions/instr_2.png,3,19,female,B,2020-05-18_14h46.38.595,Remembering_Displays,2020.1.2,MacIntel,60,,,,,,,,,,,,,,,,,,,,,,,,,
0,3,3,3,1,Instructions/instr_3.png,5,19,female,B,2020-05-18_14h46.38.595,Remembering_Displays,2020.1.2,MacIntel,60,,,,,,,,,,,,,,,,,,,,,,,,,
0,4,4,4,1,Instructions/instr_4.png,1,19,female,B,2020-05-18_14h46.38.595,Remembering_Displays,2020.1.2,MacIntel,60,,,,,,,,,,,,,,,,,,,,,,,,,
0,5,5,5,1,Instructions/instr_5.png,1,19,female,B,2020-05-18_14h46.38.595,Remembering_Displays,2020.1.2,MacIntel,60,,,,,,,,,,,,,,,,,,,,,,,,,
0,6,6,6,1,Instructions/instr_6.png,1,19,female,B,2020-05-18_14h46.38.595,Remembering_Displays,2020.1.2,MacIntel,60,,,,,,,,,,,,,,,,,,,,,,,,,
0,7,7,7,1,Instructions/instr_7.png,1,19,female,B,2020-05-18_14h46.38.595,Remembering_Displays,2020.1.2,MacIntel,60,,,,,,,,,,,,,,,,,,,,,,,,,
0,8,8,8,1,Instructions/instr_8.png,3,19,female,B,2020-05-18_14h46.38.595,Remembering_Displays,2020.1.2,MacIntel,60,,,,,,,,,,,,,,,,,,,,,,,,,
0,9,9,9,1,Instructions/instr_9.png,3,19,female,B,2020-05-18_14h46.38.595,Remembering_Displays,2020.1.2,MacIntel,60,,,,,,,,,,,,,,,,,,,,,,,,,
0,10,10,10,1,Instructions/instr_10.png,3,19,female,B,2020-05-18_14h46.38.595,Remembering_Displays,2020.1.2,MacIntel,60,,,,,,,,,,,,,,,,,,,,,,,,,
0,11,11,11,1,Instructions/instr_11.png,3,19,female,B,2020-05-18_14h46.38.595,Remembering_Displays,2020.1.2,MacIntel,60,,,,,,,,,,,,,,,,,,,,,,,,,
0,12,12,12,1,Instructions/instr_12.png,3,19,female,B,2020-05-18_14h46.38.595,Remembering_Displays,2020.1.2,MacIntel,60,,,,,,,,,,,,,,,,,,,,,,,,,
0,13,13,13,1,Instructions/instr_13.png,3,19,female,B,2020-05-18_14h46.38.595,Remembering_Displays,2020.1.2,MacIntel,60,,,,,,,,,,,,,,,,,,,,,,,,,
0,14,14,14,1,Instructions/instr_14.png,3,19,female,B,2020-05-18_14h46.38.595,Remembering_Displays,2020.1.2,MacIntel,60,,,,,,,,,,,,,,,,,,,,,,,,,
0,15,15,15,1,Instructions/instr_15.png,3,19,female,B,2020-05-18_14h46.38.595,Remembering_Displays,2020.1.2,MacIntel,60,,,,,,,,,,,,,,,,,,,,,,,,,
0,16,16,16,1,Instructions/instr_16.png,5,19,female,B,2020-05-18_14h46.38.595,Remembering_Displays,2020.1.2,MacIntel,60,,,,,,,,,,,,,,,,,,,,,,,,,
,,,,,,,19,female,B,2020-05-18_14h46.38.595,Remembering_Displays,2020.1.2,MacIntel,60,9,1,0.877735,1,1,1.941485,0,0,0,5,1,Stimuli/practiceStimuliCube/practice2_s.png,Stimuli/practiceStimuliCube/practice2_s.png,0,9,,,,,,,,,,
,,,,,,,19,female,B,2020-05-18_14h46.38.595,Remembering_Displays,2020.1.2,MacIntel,60,9,1,1.105325,9,1,0.904395,0,1,1,2,1,Stimuli/practiceStimuliCube/practice3_s.png,Stimuli/practiceStimuliCube/practice3_s.png,0,9,,,,,,,,,,
,,,,,,,19,female,B,2020-05-18_14h46.38.595,Remembering_Displays,2020.1.2,MacIntel,60,1,1,1.145555,9,1,1.152825,0,2,2,1,1,Stimuli/practiceStimuliCube/practice2_s.png,Stimuli/practiceStimuliCube/practice2_d.png,1,1,,,,,,,,,,
,,,,,,,19,female,B,2020-05-18_14h46.38.595,Remembering_Displays,2020.1.2,MacIntel,60,9,0,0.72118,1,1,2.218455,0,3,3,3,1,Stimuli/practiceStimuliCube/practice4_s.png,Stimuli/practiceStimuliCube/practice4_d.png,1,1,,,,,,,,,,
,,,,,,,19,female,B,2020-05-18_14h46.38.595,Remembering_Displays,2020.1.2,MacIntel,60,1,1,1.21562,9,1,1.24929,0,4,4,6,1,Stimuli/practiceStimuliCube/practice3_s.png,Stimuli/practiceStimuliCube/practice3_d.png,1,1,,,,,,,,,,
,,,,,,,19,female,B,2020-05-18_14h46.38.595,Remembering_Displays,2020.1.2,MacIntel,60,1,1,1.046815,9,1,1.799155,0,5,5,4,1,Stimuli/practiceStimuliCube/practice1_s.png,Stimuli/practiceStimuliCube/practice1_d.png,1,1,,,,,,,,,,
,,,,,,,19,female,B,2020-05-18_14h46.38.595,Remembering_Displays,2020.1.2,MacIntel,60,9,1,0.855255,1,1,1.166875,0,6,6,7,1,Stimuli/practiceStimuliCube/practice4_s.png,Stimuli/practiceStimuliCube/practice4_s.png,0,9,,,,,,,,,,
,,,,,,,19,female,B,2020-05-18_14h46.38.595,Remembering_Displays,2020.1.2,MacIntel,60,9,1,0.703655,9,1,0.784275,0,7,7,0,1,Stimuli/practiceStimuliCube/practice1_s.png,Stimuli/practiceStimuliCube/practice1_s.png,0,9,,,,,,,,,,
,,,,,,,19,female,B,2020-05-18_14h46.38.595,Remembering_Displays,2020.1.2,MacIntel,60,,,,,,,,,,,,,,,,0,0,0,0,1,Stimuli/practiceListCubes.xlsx,Instructions/instr_practice_B.png,Practice trials completed,,
,,,,,,,19,female,B,2020-05-18_14h46.38.595,Remembering_Displays,2020.1.2,MacIntel,60,,0,,1,1,1.60633,0,0,0,21,1,Stimuli/testStimuliCube/6u_s_5_s.png,Stimuli/testStimuliCube/6u_d_5_s.png,1,1,,,,,,,,,s,3D
,,,,,,,19,female,B,2020-05-18_14h46.38.595,Remembering_Displays,2020.1.2,MacIntel,60,9,0,0.64399,9,1,1.21766,0,1,1,9,1,Stimuli/testStimuliCube/6u_s_5.png,Stimuli/testStimuliCube/6u_d_5.png,1,1,,,,,,,,,c,3D
,,,,,,,19,female,B,2020-05-18_14h46.38.595,Remembering_Displays,2020.1.2,MacIntel,60,1,1,0.829205,9,1,0.989355,0,2,2,15,1,Stimuli/testStimuliCube/6u_s_2_s.png,Stimuli/testStimuliCube/6u_d_2_s.png,1,1,,,,,,,,,s,3D
,,,,,,,19,female,B,2020-05-18_14h46.38.595,Remembering_Displays,2020.1.2,MacIntel,60,9,1,0.5861,1,1,0.656765,0,3,3,12,1,Stimuli/testStimuliCube/6u_s_1_s.png,Stimuli/testStimuliCube/6u_s_1_s.png,0,9,,,,,,,,,s,3D
,,,,,,,19,female,B,2020-05-18_14h46.38.595,Remembering_Displays,2020.1.2,MacIntel,60,1,1,0.995525,9,1,0.684285,0,4,4,11,1,Stimuli/testStimuliCube/6u_s_6.png,Stimuli/testStimuliCube/6u_d_6.png,1,1,,,,,,,,,c,3D
,,,,,,,19,female,B,2020-05-18_14h46.38.595,Remembering_Displays,2020.1.2,MacIntel,60,1,1,0.598775,1,1,0.80418,0,5,5,1,1,Stimuli/testStimuliCube/6u_s_1.png,Stimuli/testStimuliCube/6u_d_1.png,1,1,,,,,,,,,c,3D
,,,,,,,19,female,B,2020-05-18_14h46.38.595,Remembering_Displays,2020.1.2,MacIntel,60,9,0,0.97605,9,1,1.16863,0,6,6,5,1,Stimuli/testStimuliCube/6u_s_3.png,Stimuli/testStimuliCube/6u_d_3.png,1,1,,,,,,,,,c,3D
,,,,,,,19,female,B,2020-05-18_14h46.38.595,Remembering_Displays,2020.1.2,MacIntel,60,9,1,0.635895,1,1,0.751445,0,7,7,22,1,Stimuli/testStimuliCube/6u_s_6_s.png,Stimuli/testStimuliCube/6u_s_6_s.png,0,9,,,,,,,,,s,3D
,,,,,,,19,female,B,2020-05-18_14h46.38.595,Remembering_Displays,2020.1.2,MacIntel,60,1,1,0.61298,1,1,1.167975,0,8,8,13,1,Stimuli/testStimuliCube/6u_s_1_s.png,Stimuli/testStimuliCube/6u_d_1_s.png,1,1,,,,,,,,,s,3D
,,,,,,,19,female,B,2020-05-18_14h46.38.595,Remembering_Displays,2020.1.2,MacIntel,60,9,1,0.606265,1,1,0.71771,0,9,9,8,1,Stimuli/testStimuliCube/6u_s_5.png,Stimuli/testStimuliCube/6u_s_5.png,0,9,,,,,,,,,c,3D
,,,,,,,19,female,B,2020-05-18_14h46.38.595,Remembering_Displays,2020.1.2,MacIntel,60,9,0,0.581105,9,1,0.837485,0,10,10,17,1,Stimuli/testStimuliCube/6u_s_3_s.png,Stimuli/testStimuliCube/6u_d_3_s.png,1,1,,,,,,,,,s,3D
,,,,,,,19,female,B,2020-05-18_14h46.38.595,Remembering_Displays,2020.1.2,MacIntel,60,1,1,0.627475,9,1,0.788915,0,11,11,3,1,Stimuli/testStimuliCube/6u_s_2.png,Stimuli/testStimuliCube/6u_d_2.png,1,1,,,,,,,,,c,3D
,,,,,,,19,female,B,2020-05-18_14h46.38.595,Remembering_Displays,2020.1.2,MacIntel,60,9,1,0.672285,9,1,1.22049,0,12,12,2,1,Stimuli/testStimuliCube/6u_s_2.png,Stimuli/testStimuliCube/6u_s_2.png,0,9,,,,,,,,,c,3D
,,,,,,,19,female,B,2020-05-18_14h46.38.595,Remembering_Displays,2020.1.2,MacIntel,60,9,1,0.640725,9,1,0.78374,0,13,13,20,1,Stimuli/testStimuliCube/6u_s_5_s.png,Stimuli/testStimuliCube/6u_s_5_s.png,0,9,,,,,,,,,s,3D
,,,,,,,19,female,B,2020-05-18_14h46.38.595,Remembering_Displays,2020.1.2,MacIntel,60,1,1,0.69673,1,1,0.716695,0,14,14,7,1,Stimuli/testStimuliCube/6u_s_4.png,Stimuli/testStimuliCube/6u_d_4.png,1,1,,,,,,,,,c,3D
,,,,,,,19,female,B,2020-05-18_14h46.38.595,Remembering_Displays,2020.1.2,MacIntel,60,9,1,0.777845,9,1,0.84949,0,15,15,10,1,Stimuli/testStimuliCube/6u_s_6.png,Stimuli/testStimuliCube/6u_s_6.png,0,9,,,,,,,,,c,3D
,,,,,,,19,female,B,2020-05-18_14h46.38.595,Remembering_Displays,2020.1.2,MacIntel,60,9,1,0.64075,9,1,0.701705,0,16,16,18,1,Stimuli/testStimuliCube/6u_s_4_s.png,Stimuli/testStimuliCube/6u_s_4_s.png,0,9,,,,,,,,,s,3D
,,,,,,,19,female,B,2020-05-18_14h46.38.595,Remembering_Displays,2020.1.2,MacIntel,60,9,0,0.532455,1,0,0.966325,0,17,17,19,1,Stimuli/testStimuliCube/6u_s_4_s.png,Stimuli/testStimuliCube/6u_d_4_s.png,1,1,,,,,,,,,s,3D
,,,,,,,19,female,B,2020-05-18_14h46.38.595,Remembering_Displays,2020.1.2,MacIntel,60,1,1,0.814015,9,1,1.351805,0,18,18,23,1,Stimuli/testStimuliCube/6u_s_6_s.png,Stimuli/testStimuliCube/6u_d_6_s.png,1,1,,,,,,,,,s,3D
,,,,,,,19,female,B,2020-05-18_14h46.38.595,Remembering_Displays,2020.1.2,MacIntel,60,9,1,0.98902,1,1,0.51654,0,19,19,6,1,Stimuli/testStimuliCube/6u_s_4.png,Stimuli/testStimuliCube/6u_s_4.png,0,9,,,,,,,,,c,3D
,,,,,,,19,female,B,2020-05-18_14h46.38.595,Remembering_Displays,2020.1.2,MacIntel,60,9,1,0.707265,1,1,0.601625,0,20,20,16,1,Stimuli/testStimuliCube/6u_s_3_s.png,Stimuli/testStimuliCube/6u_s_3_s.png,0,9,,,,,,,,,s,3D
,,,,,,,19,female,B,2020-05-18_14h46.38.595,Remembering_Displays,2020.1.2,MacIntel,60,9,1,0.639235,1,1,0.483425,0,21,21,4,1,Stimuli/testStimuliCube/6u_s_3.png,Stimuli/testStimuliCube/6u_s_3.png,0,9,,,,,,,,,c,3D
,,,,,,,19,female,B,2020-05-18_14h46.38.595,Remembering_Displays,2020.1.2,MacIntel,60,9,1,0.74287,9,1,0.917465,0,22,22,14,1,Stimuli/testStimuliCube/6u_s_2_s.png,Stimuli/testStimuliCube/6u_s_2_s.png,0,9,,,,,,,,,s,3D
,,,,,,,19,female,B,2020-05-18_14h46.38.595,Remembering_Displays,2020.1.2,MacIntel,60,9,1,0.64165,1,1,1.223375,0,23,23,0,1,Stimuli/testStimuliCube/6u_s_1.png,Stimuli/testStimuliCube/6u_s_1.png,0,9,,,,,,,,,c,3D
,,,,,,,19,female,B,2020-05-18_14h46.38.595,Remembering_Displays,2020.1.2,MacIntel,60,,,,,,,,,,,,,,,,0,1,1,1,1,Stimuli/trialListCubes1.xlsx,Instructions/instr_19.png,Progress: 24 of 192 trials completed,,
,,,,,,,19,female,B,2020-05-18_14h46.38.595,Remembering_Displays,2020.1.2,MacIntel,60,9,1,0.607405,1,1,0.583865,0,0,0,5,1,Stimuli/practiceStimuliSquare/practice2_s.png,Stimuli/practiceStimuliSquare/practice2_s.png,0,9,,,,,,,,,,
,,,,,,,19,female,B,2020-05-18_14h46.38.595,Remembering_Displays,2020.1.2,MacIntel,60,9,1,0.555755,9,1,0.788435,0,1,1,7,1,Stimuli/practiceStimuliSquare/practice4_s.png,Stimuli/practiceStimuliSquare/practice4_s.png,0,9,,,,,,,,,,
,,,,,,,19,female,B,2020-05-18_14h46.38.595,Remembering_Displays,2020.1.2,MacIntel,60,1,1,0.51355,9,1,0.46922,0,2,2,3,1,Stimuli/practiceStimuliSquare/practice4_s.png,Stimuli/practiceStimuliSquare/practice4_d.png,1,1,,,,,,,,,,
,,,,,,,19,female,B,2020-05-18_14h46.38.595,Remembering_Displays,2020.1.2,MacIntel,60,1,1,0.73275,1,1,0.83289,0,3,3,6,1,Stimuli/practiceStimuliSquare/practice3_s.png,Stimuli/practiceStimuliSquare/practice3_d.png,1,1,,,,,,,,,,
,,,,,,,19,female,B,2020-05-18_14h46.38.595,Remembering_Displays,2020.1.2,MacIntel,60,9,1,0.54127,1,1,0.50334,0,4,4,0,1,Stimuli/practiceStimuliSquare/practice1_s.png,Stimuli/practiceStimuliSquare/practice1_s.png,0,9,,,,,,,,,,
,,,,,,,19,female,B,2020-05-18_14h46.38.595,Remembering_Displays,2020.1.2,MacIntel,60,1,1,0.819965,1,1,1.53366,0,5,5,1,1,Stimuli/practiceStimuliSquare/practice2_s.png,Stimuli/practiceStimuliSquare/practice2_d.png,1,1,,,,,,,,,,
,,,,,,,19,female,B,2020-05-18_14h46.38.595,Remembering_Displays,2020.1.2,MacIntel,60,9,0,0.497495,9,0,1.39982,0,6,6,4,1,Stimuli/practiceStimuliSquare/practice1_s.png,Stimuli/practiceStimuliSquare/practice1_d.png,1,1,,,,,,,,,,
,,,,,,,19,female,B,2020-05-18_14h46.38.595,Remembering_Displays,2020.1.2,MacIntel,60,9,1,0.80661,9,1,1.307995,0,7,7,2,1,Stimuli/practiceStimuliSquare/practice3_s.png,Stimuli/practiceStimuliSquare/practice3_s.png,0,9,,,,,,,,,,
,,,,,,,19,female,B,2020-05-18_14h46.38.595,Remembering_Displays,2020.1.2,MacIntel,60,,,,,,,,,,,,,,,,0,2,2,2,1,Stimuli/practiceListSquares.xlsx,Instructions/instr_practice_A.png,Practice trials completed,,
,,,,,,,19,female,B,2020-05-18_14h46.38.595,Remembering_Displays,2020.1.2,MacIntel,60,9,1,0.67332,9,1,0.75102,0,0,0,6,1,Stimuli/testStimuliSquare/6u_s_22_2D.png,Stimuli/testStimuliSquare/6u_s_22_2D.png,0,9,,,,,,,,,c,2D
,,,,,,,19,female,B,2020-05-18_14h46.38.595,Remembering_Displays,2020.1.2,MacIntel,60,9,1,0.878215,1,1,0.855665,0,1,1,0,1,Stimuli/testStimuliSquare/6u_s_19_2D.png,Stimuli/testStimuliSquare/6u_s_19_2D.png,0,9,,,,,,,,,c,2D
,,,,,,,19,female,B,2020-05-18_14h46.38.595,Remembering_Displays,2020.1.2,MacIntel,60,9,1,0.80849,1,1,0.807975,0,2,2,4,1,Stimuli/testStimuliSquare/6u_s_21_2D.png,Stimuli/testStimuliSquare/6u_s_21_2D.png,0,9,,,,,,,,,c,2D
,,,,,,,19,female,B,2020-05-18_14h46.38.595,Remembering_Displays,2020.1.2,MacIntel,60,9,1,0.722115,9,1,1.02037,0,3,3,18,1,Stimuli/testStimuliSquare/6u_s_22_s_2D.png,Stimuli/testStimuliSquare/6u_s_22_s_2D.png,0,9,,,,,,,,,s,2D
,,,,,,,19,female,B,2020-05-18_14h46.38.595,Remembering_Displays,2020.1.2,MacIntel,60,9,1,0.587775,1,1,0.7575,0,4,4,2,1,Stimuli/testStimuliSquare/6u_s_20_2D.png,Stimuli/testStimuliSquare/6u_s_20_2D.png,0,9,,,,,,,,,c,2D
,,,,,,,19,female,B,2020-05-18_14h46.38.595,Remembering_Displays,2020.1.2,MacIntel,60,9,1,0.720275,1,1,1.382955,0,5,5,10,1,Stimuli/testStimuliSquare/6u_s_24_2D.png,Stimuli/testStimuliSquare/6u_s_24_2D.png,0,9,,,,,,,,,c,2D
,,,,,,,19,female,B,2020-05-18_14h46.38.595,Remembering_Displays,2020.1.2,MacIntel,60,1,1,0.583575,1,1,0.80821,0,6,6,11,1,Stimuli/testStimuliSquare/6u_s_24_2D.png,Stimuli/testStimuliSquare/6u_d_24_2D.png,1,1,,,,,,,,,c,2D
,,,,,,,19,female,B,2020-05-18_14h46.38.595,Remembering_Displays,2020.1.2,MacIntel,60,1,1,0.74744,9,1,0.821435,0,7,7,21,1,Stimuli/testStimuliSquare/6u_s_23_s_2D.png,Stimuli/testStimuliSquare/6u_d_23_s_2D.png,1,1,,,,,,,,,s,2D
,,,,,,,19,female,B,2020-05-18_14h46.38.595,Remembering_Displays,2020.1.2,MacIntel,60,9,0,0.70513,1,1,1.083295,0,8,8,9,1,Stimuli/testStimuliSquare/6u_s_23_2D.png,Stimuli/testStimuliSquare/6u_d_23_2D.png,1,1,,,,,,,,,c,2D
,,,,,,,19,female,B,2020-05-18_14h46.38.595,Remembering_Displays,2020.1.2,MacIntel,60,1,1,0.62763,1,1,1.45546,0,9,9,19,1,Stimuli/testStimuliSquare/6u_s_22_s_2D.png,Stimuli/testStimuliSquare/6u_d_22_s_2D.png,1,1,,,,,,,,,s,2D
,,,,,,,19,female,B,2020-05-18_14h46.38.595,Remembering_Displays,2020.1.2,MacIntel,60,1,1,0.882555,1,1,1.067945,0,10,10,3,1,Stimuli/testStimuliSquare/6u_s_20_2D.png,Stimuli/testStimuliSquare/6u_d_20_2D.png,1,1,,,,,,,,,c,2D
,,,,,,,19,female,B,2020-05-18_14h46.38.595,Remembering_Displays,2020.1.2,MacIntel,60,9,1,0.63746,1,1,1.355765,0,11,11,20,1,Stimuli/testStimuliSquare/6u_s_23_s_2D.png,Stimuli/testStimuliSquare/6u_s_23_s_2D.png,0,9,,,,,,,,,s,2D
,,,,,,,19,female,B,2020-05-18_14h46.38.595,Remembering_Displays,2020.1.2,MacIntel,60,1,1,0.66535,1,1,1.33492,0,12,12,1,1,Stimuli/testStimuliSquare/6u_s_19_2D.png,Stimuli/testStimuliSquare/6u_d_19_2D.png,1,1,,,,,,,,,c,2D
,,,,,,,19,female,B,2020-05-18_14h46.38.595,Remembering_Displays,2020.1.2,MacIntel,60,1,1,0.68403,9,1,0.773755,0,13,13,5,1,Stimuli/testStimuliSquare/6u_s_21_2D.png,Stimuli/testStimuliSquare/6u_d_21_2D.png,1,1,,,,,,,,,c,2D
,,,,,,,19,female,B,2020-05-18_14h46.38.595,Remembering_Displays,2020.1.2,MacIntel,60,9,1,0.690245,9,1,0.784185,0,14,14,8,1,Stimuli/testStimuliSquare/6u_s_23_2D.png,Stimuli/testStimuliSquare/6u_s_23_2D.png,0,9,,,,,,,,,c,2D
,,,,,,,19,female,B,2020-05-18_14h46.38.595,Remembering_Displays,2020.1.2,MacIntel,60,1,0,0.7859,1,1,1.13406,0,15,15,12,1,Stimuli/testStimuliSquare/6u_s_19_s_2D.png,Stimuli/testStimuliSquare/6u_s_19_s_2D.png,0,9,,,,,,,,,s,2D
,,,,,,,19,female,B,2020-05-18_14h46.38.595,Remembering_Displays,2020.1.2,MacIntel,60,9,1,0.4687,9,1,0.885365,0,16,16,14,1,Stimuli/testStimuliSquare/6u_s_20_s_2D.png,Stimuli/testStimuliSquare/6u_s_20_s_2D.png,0,9,,,,,,,,,s,2D
,,,,,,,19,female,B,2020-05-18_14h46.38.595,Remembering_Displays,2020.1.2,MacIntel,60,1,1,0.545635,1,1,0.80494,0,17,17,17,1,Stimuli/testStimuliSquare/6u_s_21_s_2D.png,Stimuli/testStimuliSquare/6u_d_21_s_2D.png,1,1,,,,,,,,,s,2D
,,,,,,,19,female,B,2020-05-18_14h46.38.595,Remembering_Displays,2020.1.2,MacIntel,60,9,0,0.549025,9,1,0.659495,0,18,18,7,1,Stimuli/testStimuliSquare/6u_s_22_2D.png,Stimuli/testStimuliSquare/6u_d_22_2D.png,1,1,,,,,,,,,c,2D
,,,,,,,19,female,B,2020-05-18_14h46.38.595,Remembering_Displays,2020.1.2,MacIntel,60,1,1,1.11292,9,1,1.1517,0,19,19,13,1,Stimuli/testStimuliSquare/6u_s_19_s_2D.png,Stimuli/testStimuliSquare/6u_d_19_s_2D.png,1,1,,,,,,,,,s,2D
,,,,,,,19,female,B,2020-05-18_14h46.38.595,Remembering_Displays,2020.1.2,MacIntel,60,1,1,0.8979,1,1,1.022775,0,20,20,15,1,Stimuli/testStimuliSquare/6u_s_20_s_2D.png,Stimuli/testStimuliSquare/6u_d_20_s_2D.png,1,1,,,,,,,,,s,2D
,,,,,,,19,female,B,2020-05-18_14h46.38.595,Remembering_Displays,2020.1.2,MacIntel,60,9,1,0.75611,9,1,0.97075,0,21,21,16,1,Stimuli/testStimuliSquare/6u_s_21_s_2D.png,Stimuli/testStimuliSquare/6u_s_21_s_2D.png,0,9,,,,,,,,,s,2D
,,,,,,,19,female,B,2020-05-18_14h46.38.595,Remembering_Displays,2020.1.2,MacIntel,60,9,1,0.73793,1,1,0.938375,0,22,22,22,1,Stimuli/testStimuliSquare/6u_s_24_s_2D.png,Stimuli/testStimuliSquare/6u_s_24_s_2D.png,0,9,,,,,,,,,s,2D
,,,,,,,19,female,B,2020-05-18_14h46.38.595,Remembering_Displays,2020.1.2,MacIntel,60,1,1,0.612825,9,1,0.59025,0,23,23,23,1,Stimuli/testStimuliSquare/6u_s_24_s_2D.png,Stimuli/testStimuliSquare/6u_d_24_s_2D.png,1,1,,,,,,,,,s,2D
,,,,,,,19,female,B,2020-05-18_14h46.38.595,Remembering_Displays,2020.1.2,MacIntel,60,,,,,,,,,,,,,,,,0,3,3,3,1,Stimuli/trialListSquares4.xlsx,Instructions/instr_18.png,Progress: 48 of 192 trials completed,,
,,,,,,,19,female,B,2020-05-18_14h46.38.595,Remembering_Displays,2020.1.2,MacIntel,60,1,1,0.55433,9,1,0.731395,0,0,0,13,1,Stimuli/testStimuliCube/6u_s_7_s.png,Stimuli/testStimuliCube/6u_d_7_s.png,1,1,,,,,,,,,s,3D
,,,,,,,19,female,B,2020-05-18_14h46.38.595,Remembering_Displays,2020.1.2,MacIntel,60,9,1,0.590435,1,1,0.67468,0,1,1,14,1,Stimuli/testStimuliCube/6u_s_8_s.png,Stimuli/testStimuliCube/6u_s_8_s.png,0,9,,,,,,,,,s,3D
,,,,,,,19,female,B,2020-05-18_14h46.38.595,Remembering_Displays,2020.1.2,MacIntel,60,9,0,0.566305,9,1,0.77331,0,2,2,23,1,Stimuli/testStimuliCube/6u_s_12_s.png,Stimuli/testStimuliCube/6u_d_12_s.png,1,1,,,,,,,,,s,3D
,,,,,,,19,female,B,2020-05-18_14h46.38.595,Remembering_Displays,2020.1.2,MacIntel,60,1,1,0.729565,1,1,0.687885,0,3,3,17,1,Stimuli/testStimuliCube/6u_s_9_s.png,Stimuli/testStimuliCube/6u_d_9_s.png,1,1,,,,,,,,,s,3D
,,,,,,,19,female,B,2020-05-18_14h46.38.595,Remembering_Displays,2020.1.2,MacIntel,60,9,1,0.75164,9,1,0.84002,0,4,4,6,1,Stimuli/testStimuliCube/6u_s_10.png,Stimuli/testStimuliCube/6u_s_10.png,0,9,,,,,,,,,c,3D
,,,,,,,19,female,B,2020-05-18_14h46.38.595,Remembering_Displays,2020.1.2,MacIntel,60,1,1,0.62568,9,1,0.640245,0,5,5,1,1,Stimuli/testStimuliCube/6u_s_7.png,Stimuli/testStimuliCube/6u_d_7.png,1,1,,,,,,,,,c,3D
,,,,,,,19,female,B,2020-05-18_14h46.38.595,Remembering_Displays,2020.1.2,MacIntel,60,9,1,0.453395,1,1,1.158045,0,6,6,20,1,Stimuli/testStimuliCube/6u_s_11_s.png,Stimuli/testStimuliCube/6u_s_11_s.png,0,9,,,,,,,,,s,3D
,,,,,,,19,female,B,2020-05-18_14h46.38.595,Remembering_Displays,2020.1.2,MacIntel,60,9,0,0.75812,9,1,1.083935,0,7,7,9,1,Stimuli/testStimuliCube/6u_s_11.png,Stimuli/testStimuliCube/6u_d_11.png,1,1,,,,,,,,,c,3D
,,,,,,,19,female,B,2020-05-18_14h46.38.595,Remembering_Displays,2020.1.2,MacIntel,60,9,1,0.45588,9,1,0.60025,0,8,8,18,1,Stimuli/testStimuliCube/6u_s_10_s.png,Stimuli/testStimuliCube/6u_s_10_s.png,0,9,,,,,,,,,s,3D
,,,,,,,19,female,B,2020-05-18_14h46.38.595,Remembering_Displays,2020.1.2,MacIntel,60,9,1,0.51072,1,1,0.886175,0,9,9,16,1,Stimuli/testStimuliCube/6u_s_9_s.png,Stimuli/testStimuliCube/6u_s_9_s.png,0,9,,,,,,,,,s,3D
,,,,,,,19,female,B,2020-05-18_14h46.38.595,Remembering_Displays,2020.1.2,MacIntel,60,9,1,0.45573,1,1,0.58325,0,10,10,2,1,Stimuli/testStimuliCube/6u_s_8.png,Stimuli/testStimuliCube/6u_s_8.png,0,9,,,,,,,,,c,3D
,,,,,,,19,female,B,2020-05-18_14h46.38.595,Remembering_Displays,2020.1.2,MacIntel,60,1,1,0.6788,1,1,0.58492,0,11,11,7,1,Stimuli/testStimuliCube/6u_s_10.png,Stimuli/testStimuliCube/6u_d_10.png,1,1,,,,,,,,,c,3D
,,,,,,,19,female,B,2020-05-18_14h46.38.595,Remembering_Displays,2020.1.2,MacIntel,60,9,1,0.805085,9,1,1.052985,0,12,12,4,1,Stimuli/testStimuliCube/6u_s_9.png,Stimuli/testStimuliCube/6u_s_9.png,0,9,,,,,,,,,c,3D
,,,,,,,19,female,B,2020-05-18_14h46.38.595,Remembering_Displays,2020.1.2,MacIntel,60,1,1,0.7295,1,1,1.067175,0,13,13,15,1,Stimuli/testStimuliCube/6u_s_8_s.png,Stimuli/testStimuliCube/6u_d_8_s.png,1,1,,,,,,,,,s,3D
,,,,,,,19,female,B,2020-05-18_14h46.38.595,Remembering_Displays,2020.1.2,MacIntel,60,9,1,0.62268,1,1,0.737935,0,14,14,22,1,Stimuli/testStimuliCube/6u_s_12_s.png,Stimuli/testStimuliCube/6u_s_12_s.png,0,9,,,,,,,,,s,3D
,,,,,,,19,female,B,2020-05-18_14h46.38.595,Remembering_Displays,2020.1.2,MacIntel,60,1,1,0.69334,9,1,0.77372,0,15,15,3,1,Stimuli/testStimuliCube/6u_s_8.png,Stimuli/testStimuliCube/6u_d_8.png,1,1,,,,,,,,,c,3D
,,,,,,,19,female,B,2020-05-18_14h46.38.595,Remembering_Displays,2020.1.2,MacIntel,60,9,1,0.52151,9,1,1.217315,0,16,16,8,1,Stimuli/testStimuliCube/6u_s_11.png,Stimuli/testStimuliCube/6u_s_11.png,0,9,,,,,,,,,c,3D
,,,,,,,19,female,B,2020-05-18_14h46.38.595,Remembering_Displays,2020.1.2,MacIntel,60,9,1,0.521565,1,1,0.552875,0,17,17,10,1,Stimuli/testStimuliCube/6u_s_12.png,Stimuli/testStimuliCube/6u_s_12.png,0,9,,,,,,,,,c,3D
,,,,,,,19,female,B,2020-05-18_14h46.38.595,Remembering_Displays,2020.1.2,MacIntel,60,9,0,0.565585,9,1,0.700125,0,18,18,19,1,Stimuli/testStimuliCube/6u_s_10_s.png,Stimuli/testStimuliCube/6u_d_10_s.png,1,1,,,,,,,,,s,3D
,,,,,,,19,female,B,2020-05-18_14h46.38.595,Remembering_Displays,2020.1.2,MacIntel,60,1,1,0.861785,9,1,0.768225,0,19,19,11,1,Stimuli/testStimuliCube/6u_s_12.png,Stimuli/testStimuliCube/6u_d_12.png,1,1,,,,,,,,,c,3D
,,,,,,,19,female,B,2020-05-18_14h46.38.595,Remembering_Displays,2020.1.2,MacIntel,60,1,1,0.748395,9,1,0.5168,0,20,20,21,1,Stimuli/testStimuliCube/6u_s_11_s.png,Stimuli/testStimuliCube/6u_d_11_s.png,1,1,,,,,,,,,s,3D
,,,,,,,19,female,B,2020-05-18_14h46.38.595,Remembering_Displays,2020.1.2,MacIntel,60,1,1,0.761465,1,1,1.534115,0,21,21,5,1,Stimuli/testStimuliCube/6u_s_9.png,Stimuli/testStimuliCube/6u_d_9.png,1,1,,,,,,,,,c,3D
,,,,,,,19,female,B,2020-05-18_14h46.38.595,Remembering_Displays,2020.1.2,MacIntel,60,9,1,0.654525,9,1,0.572185,0,22,22,0,1,Stimuli/testStimuliCube/6u_s_7.png,Stimuli/testStimuliCube/6u_s_7.png,0,9,,,,,,,,,c,3D
,,,,,,,19,female,B,2020-05-18_14h46.38.595,Remembering_Displays,2020.1.2,MacIntel,60,9,1,0.456235,9,1,0.783735,0,23,23,12,1,Stimuli/testStimuliCube/6u_s_7_s.png,Stimuli/testStimuliCube/6u_s_7_s.png,0,9,,,,,,,,,s,3D
,,,,,,,19,female,B,2020-05-18_14h46.38.595,Remembering_Displays,2020.1.2,MacIntel,60,,,,,,,,,,,,,,,,0,4,4,4,1,Stimuli/trialListCubes2.xlsx,Instructions/instr_19.png,Progress: 72 of 192 trials completed,,
,,,,,,,19,female,B,2020-05-18_14h46.38.595,Remembering_Displays,2020.1.2,MacIntel,60,9,0,0.413135,9,1,0.600035,0,0,0,23,1,Stimuli/testStimuliSquare/6u_s_18_s_2D.png,Stimuli/testStimuliSquare/6u_d_18_s_2D.png,1,1,,,,,,,,,s,2D
,,,,,,,19,female,B,2020-05-18_14h46.38.595,Remembering_Displays,2020.1.2,MacIntel,60,1,1,0.630635,1,1,1.451015,0,1,1,15,1,Stimuli/testStimuliSquare/6u_s_14_s_2D.png,Stimuli/testStimuliSquare/6u_d_14_s_2D.png,1,1,,,,,,,,,s,2D
,,,,,,,19,female,B,2020-05-18_14h46.38.595,Remembering_Displays,2020.1.2,MacIntel,60,1,1,0.562745,9,1,0.56742,0,2,2,13,1,Stimuli/testStimuliSquare/6u_s_13_s_2D.png,Stimuli/testStimuliSquare/6u_d_13_s_2D.png,1,1,,,,,,,,,s,2D
,,,,,,,19,female,B,2020-05-18_14h46.38.595,Remembering_Displays,2020.1.2,MacIntel,60,9,1,0.591255,9,1,0.80225,0,3,3,4,1,Stimuli/testStimuliSquare/6u_s_15_2D.png,Stimuli/testStimuliSquare/6u_s_15_2D.png,0,9,,,,,,,,,c,2D
,,,,,,,19,female,B,2020-05-18_14h46.38.595,Remembering_Displays,2020.1.2,MacIntel,60,1,1,0.558085,9,1,0.45207,0,4,4,3,1,Stimuli/testStimuliSquare/6u_s_14_2D.png,Stimuli/testStimuliSquare/6u_d_14_2D.png,1,1,,,,,,,,,c,2D
,,,,,,,19,female,B,2020-05-18_14h46.38.595,Remembering_Displays,2020.1.2,MacIntel,60,1,1,0.683345,1,1,1.2675,0,5,5,1,1,Stimuli/testStimuliSquare/6u_s_13_2D.png,Stimuli/testStimuliSquare/6u_d_13_2D.png,1,1,,,,,,,,,c,2D
,,,,,,,19,female,B,2020-05-18_14h46.38.595,Remembering_Displays,2020.1.2,MacIntel,60,9,1,0.571155,1,1,0.50055,0,6,6,8,1,Stimuli/testStimuliSquare/6u_s_17_2D.png,Stimuli/testStimuliSquare/6u_s_17_2D.png,0,9,,,,,,,,,c,2D
,,,,,,,19,female,B,2020-05-18_14h46.38.595,Remembering_Displays,2020.1.2,MacIntel,60,1,1,0.80043,1,1,0.86779,0,7,7,5,1,Stimuli/testStimuliSquare/6u_s_15_2D.png,Stimuli/testStimuliSquare/6u_d_15_2D.png,1,1,,,,,,,,,c,2D
,,,,,,,19,female,B,2020-05-18_14h46.38.595,Remembering_Displays,2020.1.2,MacIntel,60,1,0,0.75297,9,1,0.80293,0,8,8,20,1,Stimuli/testStimuliSquare/6u_s_17_s_2D.png,Stimuli/testStimuliSquare/6u_s_17_s_2D.png,0,9,,,,,,,,,s,2D
,,,,,,,19,female,B,2020-05-18_14h46.38.595,Remembering_Displays,2020.1.2,MacIntel,60,1,0,0.65371,1,1,0.94976,0,9,9,12,1,Stimuli/testStimuliSquare/6u_s_13_s_2D.png,Stimuli/testStimuliSquare/6u_s_13_s_2D.png,0,9,,,,,,,,,s,2D
,,,,,,,19,female,B,2020-05-18_14h46.38.595,Remembering_Displays,2020.1.2,MacIntel,60,9,1,0.42534,1,1,1.48584,0,10,10,14,1,Stimuli/testStimuliSquare/6u_s_14_s_2D.png,Stimuli/testStimuliSquare/6u_s_14_s_2D.png,0,9,,,,,,,,,s,2D
,,,,,,,19,female,B,2020-05-18_14h46.38.595,Remembering_Displays,2020.1.2,MacIntel,60,9,1,0.44112,9,1,0.80239,0,11,11,6,1,Stimuli/testStimuliSquare/6u_s_16_2D.png,Stimuli/testStimuliSquare/6u_s_16_2D.png,0,9,,,,,,,,,c,2D
,,,,,,,19,female,B,2020-05-18_14h46.38.595,Remembering_Displays,2020.1.2,MacIntel,60,1,1,0.599465,1,1,0.70009,0,12,12,7,1,Stimuli/testStimuliSquare/6u_s_16_2D.png,Stimuli/testStimuliSquare/6u_d_16_2D.png,1,1,,,,,,,,,c,2D
,,,,,,,19,female,B,2020-05-18_14h46.38.595,Remembering_Displays,2020.1.2,MacIntel,60,1,1,0.78173,9,1,0.53493,0,13,13,9,1,Stimuli/testStimuliSquare/6u_s_17_2D.png,Stimuli/testStimuliSquare/6u_d_17_2D.png,1,1,,,,,,,,,c,2D
,,,,,,,19,female,B,2020-05-18_14h46.38.595,Remembering_Displays,2020.1.2,MacIntel,60,9,1,0.58968,1,1,0.40851,0,14,14,0,1,Stimuli/testStimuliSquare/6u_s_13_2D.png,Stimuli/testStimuliSquare/6u_s_13_2D.png,0,9,,,,,,,,,c,2D
,,,,,,,19,female,B,2020-05-18_14h46.38.595,Remembering_Displays,2020.1.2,MacIntel,60,9,1,0.50994,9,1,1.251605,0,15,15,22,1,Stimuli/testStimuliSquare/6u_s_18_s_2D.png,Stimuli/testStimuliSquare/6u_s_18_s_2D.png,0,9,,,,,,,,,s,2D
,,,,,,,19,female,B,2020-05-18_14h46.38.595,Remembering_Displays,2020.1.2,MacIntel,60,9,1,0.47062,9,1,1.939315,0,16,16,10,1,Stimuli/testStimuliSquare/6u_s_18_2D.png,Stimuli/testStimuliSquare/6u_s_18_2D.png,0,9,,,,,,,,,c,2D
,,,,,,,19,female,B,2020-05-18_14h46.38.595,Remembering_Displays,2020.1.2,MacIntel,60,9,1,0.440575,9,1,1.38984,0,17,17,16,1,Stimuli/testStimuliSquare/6u_s_15_s_2D.png,Stimuli/testStimuliSquare/6u_s_15_s_2D.png,0,9,,,,,,,,,s,2D
,,,,,,,19,female,B,2020-05-18_14h46.38.595,Remembering_Displays,2020.1.2,MacIntel,60,9,1,0.55775,9,1,0.54045,0,18,18,2,1,Stimuli/testStimuliSquare/6u_s_14_2D.png,Stimuli/testStimuliSquare/6u_s_14_2D.png,0,9,,,,,,,,,c,2D
,,,,,,,19,female,B,2020-05-18_14h46.38.595,Remembering_Displays,2020.1.2,MacIntel,60,9,0,0.598525,1,1,0.767325,0,19,19,11,1,Stimuli/testStimuliSquare/6u_s_18_2D.png,Stimuli/testStimuliSquare/6u_d_18_2D.png,1,1,,,,,,,,,c,2D
,,,,,,,19,female,B,2020-05-18_14h46.38.595,Remembering_Displays,2020.1.2,MacIntel,60,1,1,0.565015,1,1,1.274255,0,20,20,17,1,Stimuli/testStimuliSquare/6u_s_15_s_2D.png,Stimuli/testStimuliSquare/6u_d_15_s_2D.png,1,1,,,,,,,,,s,2D
,,,,,,,19,female,B,2020-05-18_14h46.38.595,Remembering_Displays,2020.1.2,MacIntel,60,9,0,0.5998,9,1,1.052445,0,21,21,21,1,Stimuli/testStimuliSquare/6u_s_17_s_2D.png,Stimuli/testStimuliSquare/6u_d_17_s_2D.png,1,1,,,,,,,,,s,2D
,,,,,,,19,female,B,2020-05-18_14h46.38.595,Remembering_Displays,2020.1.2,MacIntel,60,9,1,0.45769,1,1,0.686575,0,22,22,18,1,Stimuli/testStimuliSquare/6u_s_16_s_2D.png,Stimuli/testStimuliSquare/6u_s_16_s_2D.png,0,9,,,,,,,,,s,2D
,,,,,,,19,female,B,2020-05-18_14h46.38.595,Remembering_Displays,2020.1.2,MacIntel,60,1,1,0.64473,1,1,0.58854,0,23,23,19,1,Stimuli/testStimuliSquare/6u_s_16_s_2D.png,Stimuli/testStimuliSquare/6u_d_16_s_2D.png,1,1,,,,,,,,,s,2D
,,,,,,,19,female,B,2020-05-18_14h46.38.595,Remembering_Displays,2020.1.2,MacIntel,60,,,,,,,,,,,,,,,,0,5,5,5,1,Stimuli/trialListSquares3.xlsx,Instructions/instr_18.png,Progress: 96 of 192 trials completed,,
,,,,,,,19,female,B,2020-05-18_14h46.38.595,Remembering_Displays,2020.1.2,MacIntel,60,1,1,0.742265,9,1,0.534965,0,0,0,11,1,Stimuli/testStimuliCube/6u_s_18.png,Stimuli/testStimuliCube/6u_d_18.png,1,1,,,,,,,,,c,3D
,,,,,,,19,female,B,2020-05-18_14h46.38.595,Remembering_Displays,2020.1.2,MacIntel,60,9,1,0.68808,1,1,0.5334,0,1,1,8,1,Stimuli/testStimuliCube/6u_s_17.png,Stimuli/testStimuliCube/6u_s_17.png,0,9,,,,,,,,,c,3D
,,,,,,,19,female,B,2020-05-18_14h46.38.595,Remembering_Displays,2020.1.2,MacIntel,60,9,1,0.63852,9,1,0.956165,0,2,2,16,1,Stimuli/testStimuliCube/6u_s_15_s.png,Stimuli/testStimuliCube/6u_s_15_s.png,0,9,,,,,,,,,s,3D
,,,,,,,19,female,B,2020-05-18_14h46.38.595,Remembering_Displays,2020.1.2,MacIntel,60,9,1,0.572535,1,1,0.716935,0,3,3,14,1,Stimuli/testStimuliCube/6u_s_14_s.png,Stimuli/testStimuliCube/6u_s_14_s.png,0,9,,,,,,,,,s,3D
,,,,,,,19,female,B,2020-05-18_14h46.38.595,Remembering_Displays,2020.1.2,MacIntel,60,9,1,0.505905,1,1,1.35013,0,4,4,18,1,Stimuli/testStimuliCube/6u_s_16_s.png,Stimuli/testStimuliCube/6u_s_16_s.png,0,9,,,,,,,,,s,3D
,,,,,,,19,female,B,2020-05-18_14h46.38.595,Remembering_Displays,2020.1.2,MacIntel,60,1,1,0.64615,1,1,0.65195,0,5,5,7,1,Stimuli/testStimuliCube/6u_s_16.png,Stimuli/testStimuliCube/6u_d_16.png,1,1,,,,,,,,,c,3D
,,,,,,,19,female,B,2020-05-18_14h46.38.595,Remembering_Displays,2020.1.2,MacIntel,60,1,1,0.80684,1,1,0.73412,0,6,6,1,1,Stimuli/testStimuliCube/6u_s_13.png,Stimuli/testStimuliCube/6u_d_13.png,1,1,,,,,,,,,c,3D
,,,,,,,19,female,B,2020-05-18_14h46.38.595,Remembering_Displays,2020.1.2,MacIntel,60,1,1,0.56379,1,0,0.690015,0,7,7,19,1,Stimuli/testStimuliCube/6u_s_16_s.png,Stimuli/testStimuliCube/6u_d_16_s.png,1,1,,,,,,,,,s,3D
,,,,,,,19,female,B,2020-05-18_14h46.38.595,Remembering_Displays,2020.1.2,MacIntel,60,1,1,0.707805,9,1,0.519365,0,8,8,5,1,Stimuli/testStimuliCube/6u_s_15.png,Stimuli/testStimuliCube/6u_d_15.png,1,1,,,,,,,,,c,3D
,,,,,,,19,female,B,2020-05-18_14h46.38.595,Remembering_Displays,2020.1.2,MacIntel,60,9,0,0.814025,9,1,0.733665,0,9,9,23,1,Stimuli/testStimuliCube/6u_s_18_s.png,Stimuli/testStimuliCube/6u_d_18_s.png,1,1,,,,,,,,,s,3D
,,,,,,,19,female,B,2020-05-18_14h46.38.595,Remembering_Displays,2020.1.2,MacIntel,60,1,1,0.61298,1,1,1.41675,0,10,10,9,1,Stimuli/testStimuliCube/6u_s_17.png,Stimuli/testStimuliCube/6u_d_17.png,1,1,,,,,,,,,c,3D
,,,,,,,19,female,B,2020-05-18_14h46.38.595,Remembering_Displays,2020.1.2,MacIntel,60,9,1,0.427745,1,1,0.440555,0,11,11,22,1,Stimuli/testStimuliCube/6u_s_18_s.png,Stimuli/testStimuliCube/6u_s_18_s.png,0,9,,,,,,,,,s,3D
,,,,,,,19,female,B,2020-05-18_14h46.38.595,Remembering_Displays,2020.1.2,MacIntel,60,9,1,0.55562,9,1,0.68389,0,12,12,2,1,Stimuli/testStimuliCube/6u_s_14.png,Stimuli/testStimuliCube/6u_s_14.png,0,9,,,,,,,,,c,3D
,,,,,,,19,female,B,2020-05-18_14h46.38.595,Remembering_Displays,2020.1.2,MacIntel,60,9,1,0.407765,9,1,0.91766,0,13,13,10,1,Stimuli/testStimuliCube/6u_s_18.png,Stimuli/testStimuliCube/6u_s_18.png,0,9,,,,,,,,,c,3D
,,,,,,,19,female,B,2020-05-18_14h46.38.595,Remembering_Displays,2020.1.2,MacIntel,60,1,1,0.591275,9,1,0.775025,0,14,14,15,1,Stimuli/testStimuliCube/6u_s_14_s.png,Stimuli/testStimuliCube/6u_d_14_s.png,1,1,,,,,,,,,s,3D
,,,,,,,19,female,B,2020-05-18_14h46.38.595,Remembering_Displays,2020.1.2,MacIntel,60,9,1,0.52548,1,1,0.533925,0,15,15,12,1,Stimuli/testStimuliCube/6u_s_13_s.png,Stimuli/testStimuliCube/6u_s_13_s.png,0,9,,,,,,,,,s,3D
,,,,,,,19,female,B,2020-05-18_14h46.38.595,Remembering_Displays,2020.1.2,MacIntel,60,1,1,0.81524,1,1,0.718285,0,16,16,17,1,Stimuli/testStimuliCube/6u_s_15_s.png,Stimuli/testStimuliCube/6u_d_15_s.png,1,1,,,,,,,,,s,3D
,,,,,,,19,female,B,2020-05-18_14h46.38.595,Remembering_Displays,2020.1.2,MacIntel,60,9,1,0.4274,1,1,1.05458,0,17,17,6,1,Stimuli/testStimuliCube/6u_s_16.png,Stimuli/testStimuliCube/6u_s_16.png,0,9,,,,,,,,,c,3D
,,,,,,,19,female,B,2020-05-18_14h46.38.595,Remembering_Displays,2020.1.2,MacIntel,60,9,1,0.588865,9,1,0.932735,0,18,18,0,1,Stimuli/testStimuliCube/6u_s_13.png,Stimuli/testStimuliCube/6u_s_13.png,0,9,,,,,,,,,c,3D
,,,,,,,19,female,B,2020-05-18_14h46.38.595,Remembering_Displays,2020.1.2,MacIntel,60,1,1,0.58356,9,1,0.566815,0,19,19,3,1,Stimuli/testStimuliCube/6u_s_14.png,Stimuli/testStimuliCube/6u_d_14.png,1,1,,,,,,,,,c,3D
,,,,,,,19,female,B,2020-05-18_14h46.38.595,Remembering_Displays,2020.1.2,MacIntel,60,1,1,0.56812,1,1,0.458475,0,20,20,21,1,Stimuli/testStimuliCube/6u_s_17_s.png,Stimuli/testStimuliCube/6u_d_17_s.png,1,1,,,,,,,,,s,3D
,,,,,,,19,female,B,2020-05-18_14h46.38.595,Remembering_Displays,2020.1.2,MacIntel,60,9,1,0.57541,9,1,0.48543,0,21,21,4,1,Stimuli/testStimuliCube/6u_s_15.png,Stimuli/testStimuliCube/6u_s_15.png,0,9,,,,,,,,,c,3D
,,,,,,,19,female,B,2020-05-18_14h46.38.595,Remembering_Displays,2020.1.2,MacIntel,60,1,1,0.51676,1,1,0.86936,0,22,22,13,1,Stimuli/testStimuliCube/6u_s_13_s.png,Stimuli/testStimuliCube/6u_d_13_s.png,1,1,,,,,,,,,s,3D
,,,,,,,19,female,B,2020-05-18_14h46.38.595,Remembering_Displays,2020.1.2,MacIntel,60,9,1,0.436605,9,1,0.82467,0,23,23,20,1,Stimuli/testStimuliCube/6u_s_17_s.png,Stimuli/testStimuliCube/6u_s_17_s.png,0,9,,,,,,,,,s,3D
,,,,,,,19,female,B,2020-05-18_14h46.38.595,Remembering_Displays,2020.1.2,MacIntel,60,,,,,,,,,,,,,,,,0,6,6,6,1,Stimuli/trialListCubes3.xlsx,Instructions/instr_19.png,Progress: 120 of 192 trials completed,,
,,,,,,,19,female,B,2020-05-18_14h46.38.595,Remembering_Displays,2020.1.2,MacIntel,60,9,0,0.56195,9,1,0.636495,0,0,0,23,1,Stimuli/testStimuliSquare/6u_s_12_s_2D.png,Stimuli/testStimuliSquare/6u_d_12_s_2D.png,1,1,,,,,,,,,s,2D
,,,,,,,19,female,B,2020-05-18_14h46.38.595,Remembering_Displays,2020.1.2,MacIntel,60,9,0,0.481445,9,1,1.23379,0,1,1,15,1,Stimuli/testStimuliSquare/6u_s_8_s_2D.png,Stimuli/testStimuliSquare/6u_d_8_s_2D.png,1,1,,,,,,,,,s,2D
,,,,,,,19,female,B,2020-05-18_14h46.38.595,Remembering_Displays,2020.1.2,MacIntel,60,9,0,0.59666,9,1,1.201685,0,2,2,17,1,Stimuli/testStimuliSquare/6u_s_9_s_2D.png,Stimuli/testStimuliSquare/6u_d_9_s_2D.png,1,1,,,,,,,,,s,2D
,,,,,,,19,female,B,2020-05-18_14h46.38.595,Remembering_Displays,2020.1.2,MacIntel,60,9,1,0.48875,1,1,0.55108,0,3,3,8,1,Stimuli/testStimuliSquare/6u_s_11_2D.png,Stimuli/testStimuliSquare/6u_s_11_2D.png,0,9,,,,,,,,,c,2D
,,,,,,,19,female,B,2020-05-18_14h46.38.595,Remembering_Displays,2020.1.2,MacIntel,60,1,1,0.61723,1,1,0.767685,0,4,4,9,1,Stimuli/testStimuliSquare/6u_s_11_2D.png,Stimuli/testStimuliSquare/6u_d_11_2D.png,1,1,,,,,,,,,c,2D
,,,,,,,19,female,B,2020-05-18_14h46.38.595,Remembering_Displays,2020.1.2,MacIntel,60,1,1,0.685915,9,1,0.53848,0,5,5,11,1,Stimuli/testStimuliSquare/6u_s_12_2D.png,Stimuli/testStimuliSquare/6u_d_12_2D.png,1,1,,,,,,,,,c,2D
,,,,,,,19,female,B,2020-05-18_14h46.38.595,Remembering_Displays,2020.1.2,MacIntel,60,9,1,0.638255,1,1,0.563515,0,6,6,12,1,Stimuli/testStimuliSquare/6u_s_7_s_2D.png,Stimuli/testStimuliSquare/6u_s_7_s_2D.png,0,9,,,,,,,,,s,2D
,,,,,,,19,female,B,2020-05-18_14h46.38.595,Remembering_Displays,2020.1.2,MacIntel,60,1,1,0.617695,1,1,0.65411,0,7,7,3,1,Stimuli/testStimuliSquare/6u_s_8_2D.png,Stimuli/testStimuliSquare/6u_d_8_2D.png,1,1,,,,,,,,,c,2D
,,,,,,,19,female,B,2020-05-18_14h46.38.595,Remembering_Displays,2020.1.2,MacIntel,60,1,1,0.610925,1,1,0.65421,0,8,8,21,1,Stimuli/testStimuliSquare/6u_s_11_s_2D.png,Stimuli/testStimuliSquare/6u_d_11_s_2D.png,1,1,,,,,,,,,s,2D
,,,,,,,19,female,B,2020-05-18_14h46.38.595,Remembering_Displays,2020.1.2,MacIntel,60,9,1,0.44142,9,1,1.000635,0,9,9,2,1,Stimuli/testStimuliSquare/6u_s_8_2D.png,Stimuli/testStimuliSquare/6u_s_8_2D.png,0,9,,,,,,,,,c,2D
,,,,,,,19,female,B,2020-05-18_14h46.38.595,Remembering_Displays,2020.1.2,MacIntel,60,1,1,0.636525,9,1,0.63887,0,10,10,7,1,Stimuli/testStimuliSquare/6u_s_10_2D.png,Stimuli/testStimuliSquare/6u_d_10_2D.png,1,1,,,,,,,,,c,2D
,,,,,,,19,female,B,2020-05-18_14h46.38.595,Remembering_Displays,2020.1.2,MacIntel,60,9,1,0.463105,1,1,0.951045,0,11,11,6,1,Stimuli/testStimuliSquare/6u_s_10_2D.png,Stimuli/testStimuliSquare/6u_s_10_2D.png,0,9,,,,,,,,,c,2D
,,,,,,,19,female,B,2020-05-18_14h46.38.595,Remembering_Displays,2020.1.2,MacIntel,60,9,0,0.49221,1,1,1.151235,0,12,12,5,1,Stimuli/testStimuliSquare/6u_s_9_2D.png,Stimuli/testStimuliSquare/6u_d_9_2D.png,1,1,,,,,,,,,c,2D
,,,,,,,19,female,B,2020-05-18_14h46.38.595,Remembering_Displays,2020.1.2,MacIntel,60,9,1,0.622605,9,1,1.317715,0,13,13,14,1,Stimuli/testStimuliSquare/6u_s_8_s_2D.png,Stimuli/testStimuliSquare/6u_s_8_s_2D.png,0,9,,,,,,,,,s,2D
,,,,,,,19,female,B,2020-05-18_14h46.38.595,Remembering_Displays,2020.1.2,MacIntel,60,9,1,0.42035,1,1,0.93729,0,14,14,0,1,Stimuli/testStimuliSquare/6u_s_7_2D.png,Stimuli/testStimuliSquare/6u_s_7_2D.png,0,9,,,,,,,,,c,2D
,,,,,,,19,female,B,2020-05-18_14h46.38.595,Remembering_Displays,2020.1.2,MacIntel,60,9,1,0.591325,9,1,0.717105,0,15,15,20,1,Stimuli/testStimuliSquare/6u_s_11_s_2D.png,Stimuli/testStimuliSquare/6u_s_11_s_2D.png,0,9,,,,,,,,,s,2D
,,,,,,,19,female,B,2020-05-18_14h46.38.595,Remembering_Displays,2020.1.2,MacIntel,60,1,0,0.86184,1,1,0.60069,0,16,16,16,1,Stimuli/testStimuliSquare/6u_s_9_s_2D.png,Stimuli/testStimuliSquare/6u_s_9_s_2D.png,0,9,,,,,,,,,s,2D
,,,,,,,19,female,B,2020-05-18_14h46.38.595,Remembering_Displays,2020.1.2,MacIntel,60,1,1,0.52792,9,1,0.48031,0,17,17,13,1,Stimuli/testStimuliSquare/6u_s_7_s_2D.png,Stimuli/testStimuliSquare/6u_d_7_s_2D.png,1,1,,,,,,,,,s,2D
,,,,,,,19,female,B,2020-05-18_14h46.38.595,Remembering_Displays,2020.1.2,MacIntel,60,9,1,0.43646,1,1,0.80185,0,18,18,18,1,Stimuli/testStimuliSquare/6u_s_10_s_2D.png,Stimuli/testStimuliSquare/6u_s_10_s_2D.png,0,9,,,,,,,,,s,2D
,,,,,,,19,female,B,2020-05-18_14h46.38.595,Remembering_Displays,2020.1.2,MacIntel,60,9,1,0.40712,1,1,0.535465,0,19,19,22,1,Stimuli/testStimuliSquare/6u_s_12_s_2D.png,Stimuli/testStimuliSquare/6u_s_12_s_2D.png,0,9,,,,,,,,,s,2D
,,,,,,,19,female,B,2020-05-18_14h46.38.595,Remembering_Displays,2020.1.2,MacIntel,60,1,1,0.53264,1,1,0.651775,0,20,20,1,1,Stimuli/testStimuliSquare/6u_s_7_2D.png,Stimuli/testStimuliSquare/6u_d_7_2D.png,1,1,,,,,,,,,c,2D
,,,,,,,19,female,B,2020-05-18_14h46.38.595,Remembering_Displays,2020.1.2,MacIntel,60,1,1,0.746015,1,1,0.98498,0,21,21,19,1,Stimuli/testStimuliSquare/6u_s_10_s_2D.png,Stimuli/testStimuliSquare/6u_d_10_s_2D.png,1,1,,,,,,,,,s,2D
,,,,,,,19,female,B,2020-05-18_14h46.38.595,Remembering_Displays,2020.1.2,MacIntel,60,9,1,0.659,1,1,0.634215,0,22,22,4,1,Stimuli/testStimuliSquare/6u_s_9_2D.png,Stimuli/testStimuliSquare/6u_s_9_2D.png,0,9,,,,,,,,,c,2D
,,,,,,,19,female,B,2020-05-18_14h46.38.595,Remembering_Displays,2020.1.2,MacIntel,60,9,1,0.44321,1,1,0.66309,0,23,23,10,1,Stimuli/testStimuliSquare/6u_s_12_2D.png,Stimuli/testStimuliSquare/6u_s_12_2D.png,0,9,,,,,,,,,c,2D
,,,,,,,19,female,B,2020-05-18_14h46.38.595,Remembering_Displays,2020.1.2,MacIntel,60,,,,,,,,,,,,,,,,0,7,7,7,1,Stimuli/trialListSquares2.xlsx,Instructions/instr_18.png,Progress: 144 of 192 trials completed,,
,,,,,,,19,female,B,2020-05-18_14h46.38.595,Remembering_Displays,2020.1.2,MacIntel,60,1,1,1.141205,1,1,0.400595,0,0,0,9,1,Stimuli/testStimuliCube/6u_s_23.png,Stimuli/testStimuliCube/6u_d_23.png,1,1,,,,,,,,,c,3D
,,,,,,,19,female,B,2020-05-18_14h46.38.595,Remembering_Displays,2020.1.2,MacIntel,60,1,0,0.733775,9,1,1.100885,0,1,1,2,1,Stimuli/testStimuliCube/6u_s_20.png,Stimuli/testStimuliCube/6u_s_20.png,0,9,,,,,,,,,c,3D
,,,,,,,19,female,B,2020-05-18_14h46.38.595,Remembering_Displays,2020.1.2,MacIntel,60,9,1,0.80501,1,1,0.735975,0,2,2,14,1,Stimuli/testStimuliCube/6u_s_20_s.png,Stimuli/testStimuliCube/6u_s_20_s.png,0,9,,,,,,,,,s,3D
,,,,,,,19,female,B,2020-05-18_14h46.38.595,Remembering_Displays,2020.1.2,MacIntel,60,9,1,0.73606,9,1,0.48341,0,3,3,0,1,Stimuli/testStimuliCube/6u_s_19.png,Stimuli/testStimuliCube/6u_s_19.png,0,9,,,,,,,,,c,3D
,,,,,,,19,female,B,2020-05-18_14h46.38.595,Remembering_Displays,2020.1.2,MacIntel,60,1,1,0.773205,9,1,0.68476,0,4,4,7,1,Stimuli/testStimuliCube/6u_s_22.png,Stimuli/testStimuliCube/6u_d_22.png,1,1,,,,,,,,,c,3D
,,,,,,,19,female,B,2020-05-18_14h46.38.595,Remembering_Displays,2020.1.2,MacIntel,60,9,1,0.58567,1,1,0.385615,0,5,5,8,1,Stimuli/testStimuliCube/6u_s_23.png,Stimuli/testStimuliCube/6u_s_23.png,0,9,,,,,,,,,c,3D
,,,,,,,19,female,B,2020-05-18_14h46.38.595,Remembering_Displays,2020.1.2,MacIntel,60,1,0,0.80506,9,1,0.602655,0,6,6,6,1,Stimuli/testStimuliCube/6u_s_22.png,Stimuli/testStimuliCube/6u_s_22.png,0,9,,,,,,,,,c,3D
,,,,,,,19,female,B,2020-05-18_14h46.38.595,Remembering_Displays,2020.1.2,MacIntel,60,1,1,0.55637,1,1,0.554405,0,7,7,3,1,Stimuli/testStimuliCube/6u_s_20.png,Stimuli/testStimuliCube/6u_d_20.png,1,1,,,,,,,,,c,3D
,,,,,,,19,female,B,2020-05-18_14h46.38.595,Remembering_Displays,2020.1.2,MacIntel,60,1,1,0.7469,9,0,0.50154,0,8,8,15,1,Stimuli/testStimuliCube/6u_s_20_s.png,Stimuli/testStimuliCube/6u_d_20_s.png,1,1,,,,,,,,,s,3D
,,,,,,,19,female,B,2020-05-18_14h46.38.595,Remembering_Displays,2020.1.2,MacIntel,60,9,1,0.62123,9,1,0.734185,0,9,9,12,1,Stimuli/testStimuliCube/6u_s_19_s.png,Stimuli/testStimuliCube/6u_s_19_s.png,0,9,,,,,,,,,s,3D
,,,,,,,19,female,B,2020-05-18_14h46.38.595,Remembering_Displays,2020.1.2,MacIntel,60,9,1,0.592045,1,1,0.571065,0,10,10,16,1,Stimuli/testStimuliCube/6u_s_21_s.png,Stimuli/testStimuliCube/6u_s_21_s.png,0,9,,,,,,,,,s,3D
,,,,,,,19,female,B,2020-05-18_14h46.38.595,Remembering_Displays,2020.1.2,MacIntel,60,1,1,0.49969,1,1,0.46936,0,11,11,5,1,Stimuli/testStimuliCube/6u_s_21.png,Stimuli/testStimuliCube/6u_d_21.png,1,1,,,,,,,,,c,3D
,,,,,,,19,female,B,2020-05-18_14h46.38.595,Remembering_Displays,2020.1.2,MacIntel,60,1,1,0.499,1,1,0.918175,0,12,12,19,1,Stimuli/testStimuliCube/6u_s_22_s.png,Stimuli/testStimuliCube/6u_d_22_s.png,1,1,,,,,,,,,s,3D
,,,,,,,19,female,B,2020-05-18_14h46.38.595,Remembering_Displays,2020.1.2,MacIntel,60,1,1,0.558615,9,1,0.816835,0,13,13,1,1,Stimuli/testStimuliCube/6u_s_19.png,Stimuli/testStimuliCube/6u_d_19.png,1,1,,,,,,,,,c,3D
,,,,,,,19,female,B,2020-05-18_14h46.38.595,Remembering_Displays,2020.1.2,MacIntel,60,1,1,0.480955,1,1,0.78412,0,14,14,17,1,Stimuli/testStimuliCube/6u_s_21_s.png,Stimuli/testStimuliCube/6u_d_21_s.png,1,1,,,,,,,,,s,3D
,,,,,,,19,female,B,2020-05-18_14h46.38.595,Remembering_Displays,2020.1.2,MacIntel,60,9,1,0.741985,9,1,0.88656,0,15,15,22,1,Stimuli/testStimuliCube/6u_s_24_s.png,Stimuli/testStimuliCube/6u_s_24_s.png,0,9,,,,,,,,,s,3D
,,,,,,,19,female,B,2020-05-18_14h46.38.595,Remembering_Displays,2020.1.2,MacIntel,60,9,1,0.59174,1,1,0.722755,0,16,16,4,1,Stimuli/testStimuliCube/6u_s_21.png,Stimuli/testStimuliCube/6u_s_21.png,0,9,,,,,,,,,c,3D
,,,,,,,19,female,B,2020-05-18_14h46.38.595,Remembering_Displays,2020.1.2,MacIntel,60,9,1,0.522585,1,1,0.372075,0,17,17,10,1,Stimuli/testStimuliCube/6u_s_24.png,Stimuli/testStimuliCube/6u_s_24.png,0,9,,,,,,,,,c,3D
,,,,,,,19,female,B,2020-05-18_14h46.38.595,Remembering_Displays,2020.1.2,MacIntel,60,1,1,0.595865,1,1,0.41658,0,18,18,21,1,Stimuli/testStimuliCube/6u_s_23_s.png,Stimuli/testStimuliCube/6u_d_23_s.png,1,1,,,,,,,,,s,3D
,,,,,,,19,female,B,2020-05-18_14h46.38.595,Remembering_Displays,2020.1.2,MacIntel,60,9,0,0.494965,9,1,0.500665,0,19,19,13,1,Stimuli/testStimuliCube/6u_s_19_s.png,Stimuli/testStimuliCube/6u_d_19_s.png,1,1,,,,,,,,,s,3D
,,,,,,,19,female,B,2020-05-18_14h46.38.595,Remembering_Displays,2020.1.2,MacIntel,60,1,1,0.696075,1,1,0.552935,0,20,20,11,1,Stimuli/testStimuliCube/6u_s_24.png,Stimuli/testStimuliCube/6u_d_24.png,1,1,,,,,,,,,c,3D
,,,,,,,19,female,B,2020-05-18_14h46.38.595,Remembering_Displays,2020.1.2,MacIntel,60,1,1,0.6199,9,1,0.93532,0,21,21,23,1,Stimuli/testStimuliCube/6u_s_24_s.png,Stimuli/testStimuliCube/6u_d_24_s.png,1,1,,,,,,,,,s,3D
,,,,,,,19,female,B,2020-05-18_14h46.38.595,Remembering_Displays,2020.1.2,MacIntel,60,9,1,0.475655,9,1,0.497205,0,22,22,18,1,Stimuli/testStimuliCube/6u_s_22_s.png,Stimuli/testStimuliCube/6u_s_22_s.png,0,9,,,,,,,,,s,3D
,,,,,,,19,female,B,2020-05-18_14h46.38.595,Remembering_Displays,2020.1.2,MacIntel,60,9,1,0.511165,1,1,0.65014,0,23,23,20,1,Stimuli/testStimuliCube/6u_s_23_s.png,Stimuli/testStimuliCube/6u_s_23_s.png,0,9,,,,,,,,,s,3D
,,,,,,,19,female,B,2020-05-18_14h46.38.595,Remembering_Displays,2020.1.2,MacIntel,60,,,,,,,,,,,,,,,,0,8,8,8,1,Stimuli/trialListCubes4.xlsx,Instructions/instr_19.png,Progress: 168 of 192 trials completed,,
,,,,,,,19,female,B,2020-05-18_14h46.38.595,Remembering_Displays,2020.1.2,MacIntel,60,9,1,0.40938,9,1,0.567355,0,0,0,20,1,Stimuli/testStimuliSquare/6u_s_5_s_2D.png,Stimuli/testStimuliSquare/6u_s_5_s_2D.png,0,9,,,,,,,,,s,2D
,,,,,,,19,female,B,2020-05-18_14h46.38.595,Remembering_Displays,2020.1.2,MacIntel,60,1,1,0.5859,9,1,0.4506,0,1,1,9,1,Stimuli/testStimuliSquare/6u_s_5_2D.png,Stimuli/testStimuliSquare/6u_d_5_2D.png,1,1,,,,,,,,,c,2D
,,,,,,,19,female,B,2020-05-18_14h46.38.595,Remembering_Displays,2020.1.2,MacIntel,60,1,1,0.619585,9,1,0.50158,0,2,2,7,1,Stimuli/testStimuliSquare/6u_s_4_2D.png,Stimuli/testStimuliSquare/6u_d_4_2D.png,1,1,,,,,,,,,c,2D
,,,,,,,19,female,B,2020-05-18_14h46.38.595,Remembering_Displays,2020.1.2,MacIntel,60,1,1,0.4827,1,1,0.68741,0,3,3,5,1,Stimuli/testStimuliSquare/6u_s_3_2D.png,Stimuli/testStimuliSquare/6u_d_3_2D.png,1,1,,,,,,,,,c,2D
,,,,,,,19,female,B,2020-05-18_14h46.38.595,Remembering_Displays,2020.1.2,MacIntel,60,1,1,0.53192,1,1,0.632765,0,4,4,13,1,Stimuli/testStimuliSquare/6u_s_1_s_2D.png,Stimuli/testStimuliSquare/6u_d_1_s_2D.png,1,1,,,,,,,,,s,2D
,,,,,,,19,female,B,2020-05-18_14h46.38.595,Remembering_Displays,2020.1.2,MacIntel,60,1,1,0.61525,1,1,0.51792,0,5,5,21,1,Stimuli/testStimuliSquare/6u_s_5_s_2D.png,Stimuli/testStimuliSquare/6u_d_5_s_2D.png,1,1,,,,,,,,,s,2D
,,,,,,,19,female,B,2020-05-18_14h46.38.595,Remembering_Displays,2020.1.2,MacIntel,60,1,1,0.56329,9,0,0.67049,0,6,6,17,1,Stimuli/testStimuliSquare/6u_s_3_s_2D.png,Stimuli/testStimuliSquare/6u_d_3_s_2D.png,1,1,,,,,,,,,s,2D
,,,,,,,19,female,B,2020-05-18_14h46.38.595,Remembering_Displays,2020.1.2,MacIntel,60,9,1,0.786305,9,1,1.08641,0,7,7,4,1,Stimuli/testStimuliSquare/6u_s_3_2D.png,Stimuli/testStimuliSquare/6u_s_3_2D.png,0,9,,,,,,,,,c,2D
,,,,,,,19,female,B,2020-05-18_14h46.38.595,Remembering_Displays,2020.1.2,MacIntel,60,1,1,0.5532,1,1,0.7339,0,8,8,11,1,Stimuli/testStimuliSquare/6u_s_6_2D.png,Stimuli/testStimuliSquare/6u_d_6_2D.png,1,1,,,,,,,,,c,2D
,,,,,,,19,female,B,2020-05-18_14h46.38.595,Remembering_Displays,2020.1.2,MacIntel,60,9,1,0.541875,1,1,0.800905,0,9,9,8,1,Stimuli/testStimuliSquare/6u_s_5_2D.png,Stimuli/testStimuliSquare/6u_s_5_2D.png,0,9,,,,,,,,,c,2D
,,,,,,,19,female,B,2020-05-18_14h46.38.595,Remembering_Displays,2020.1.2,MacIntel,60,1,1,0.630815,9,1,0.65161,0,10,10,19,1,Stimuli/testStimuliSquare/6u_s_4_s_2D.png,Stimuli/testStimuliSquare/6u_d_4_s_2D.png,1,1,,,,,,,,,s,2D
,,,,,,,19,female,B,2020-05-18_14h46.38.595,Remembering_Displays,2020.1.2,MacIntel,60,9,1,0.47512,9,1,0.58628,0,11,11,10,1,Stimuli/testStimuliSquare/6u_s_6_2D.png,Stimuli/testStimuliSquare/6u_s_6_2D.png,0,9,,,,,,,,,c,2D
,,,,,,,19,female,B,2020-05-18_14h46.38.595,Remembering_Displays,2020.1.2,MacIntel,60,9,1,0.441965,9,1,0.66656,0,12,12,0,1,Stimuli/testStimuliSquare/6u_s_1_2D.png,Stimuli/testStimuliSquare/6u_s_1_2D.png,0,9,,,,,,,,,c,2D
,,,,,,,19,female,B,2020-05-18_14h46.38.595,Remembering_Displays,2020.1.2,MacIntel,60,9,1,0.625755,9,1,0.633345,0,13,13,18,1,Stimuli/testStimuliSquare/6u_s_4_s_2D.png,Stimuli/testStimuliSquare/6u_s_4_s_2D.png,0,9,,,,,,,,,s,2D
,,,,,,,19,female,B,2020-05-18_14h46.38.595,Remembering_Displays,2020.1.2,MacIntel,60,9,1,0.45957,1,1,0.3661,0,14,14,12,1,Stimuli/testStimuliSquare/6u_s_1_s_2D.png,Stimuli/testStimuliSquare/6u_s_1_s_2D.png,0,9,,,,,,,,,s,2D
,,,,,,,19,female,B,2020-05-18_14h46.38.595,Remembering_Displays,2020.1.2,MacIntel,60,9,1,0.472795,1,1,0.554425,0,15,15,14,1,Stimuli/testStimuliSquare/6u_s_2_s_2D.png,Stimuli/testStimuliSquare/6u_s_2_s_2D.png,0,9,,,,,,,,,s,2D
,,,,,,,19,female,B,2020-05-18_14h46.38.595,Remembering_Displays,2020.1.2,MacIntel,60,9,1,0.49089,1,1,0.50277,0,16,16,6,1,Stimuli/testStimuliSquare/6u_s_4_2D.png,Stimuli/testStimuliSquare/6u_s_4_2D.png,0,9,,,,,,,,,c,2D
,,,,,,,19,female,B,2020-05-18_14h46.38.595,Remembering_Displays,2020.1.2,MacIntel,60,9,1,0.507925,9,1,0.76317,0,17,17,2,1,Stimuli/testStimuliSquare/6u_s_2_2D.png,Stimuli/testStimuliSquare/6u_s_2_2D.png,0,9,,,,,,,,,c,2D
,,,,,,,19,female,B,2020-05-18_14h46.38.595,Remembering_Displays,2020.1.2,MacIntel,60,9,0,0.421235,9,1,0.51696,0,18,18,1,1,Stimuli/testStimuliSquare/6u_s_1_2D.png,Stimuli/testStimuliSquare/6u_d_1_2D.png,1,1,,,,,,,,,c,2D
,,,,,,,19,female,B,2020-05-18_14h46.38.595,Remembering_Displays,2020.1.2,MacIntel,60,1,1,0.56305,9,1,0.500805,0,19,19,23,1,Stimuli/testStimuliSquare/6u_s_6_s_2D.png,Stimuli/testStimuliSquare/6u_d_6_s_2D.png,1,1,,,,,,,,,s,2D
,,,,,,,19,female,B,2020-05-18_14h46.38.595,Remembering_Displays,2020.1.2,MacIntel,60,9,1,0.556605,1,0,0.503665,0,20,20,16,1,Stimuli/testStimuliSquare/6u_s_3_s_2D.png,Stimuli/testStimuliSquare/6u_s_3_s_2D.png,0,9,,,,,,,,,s,2D
,,,,,,,19,female,B,2020-05-18_14h46.38.595,Remembering_Displays,2020.1.2,MacIntel,60,9,1,0.425815,9,1,0.588045,0,21,21,22,1,Stimuli/testStimuliSquare/6u_s_6_s_2D.png,Stimuli/testStimuliSquare/6u_s_6_s_2D.png,0,9,,,,,,,,,s,2D
,,,,,,,19,female,B,2020-05-18_14h46.38.595,Remembering_Displays,2020.1.2,MacIntel,60,1,1,0.689315,1,1,0.78413,0,22,22,3,1,Stimuli/testStimuliSquare/6u_s_2_2D.png,Stimuli/testStimuliSquare/6u_d_2_2D.png,1,1,,,,,,,,,c,2D
,,,,,,,19,female,B,2020-05-18_14h46.38.595,Remembering_Displays,2020.1.2,MacIntel,60,1,1,0.60033,9,1,1.485115,0,23,23,15,1,Stimuli/testStimuliSquare/6u_s_2_s_2D.png,Stimuli/testStimuliSquare/6u_d_2_s_2D.png,1,1,,,,,,,,,s,2D