instr_Loop.thisRepN,instr_Loop.thisTrialN,instr_Loop.thisN,instr_Loop.thisIndex,instr_Loop.ran,instructionImage,time,age,sex (female/male),order,date,expName,psychopyVersion,OS,frameRate,struc_judge_respond.keys,struc_judge_respond.corr,struc_judge_respond.rt,dual_respond.keys,dual_respond.corr,dual_respond.rt,trials.thisRepN,trials.thisTrialN,trials.thisN,trials.thisIndex,trials.ran,stim1,stim2,isAnyChange,corrAns,selectBlock.thisRepN,selectBlock.thisTrialN,selectBlock.thisN,selectBlock.thisIndex,selectBlock.ran,condsFile,condsImage,remaining,connected,dimensionality
0,0,0,0,1,Instructions/consent.png,3,19,Male,B,2020-05-20_15h38.33.450,Remembering_Displays,2020.1.2,Win32,60,,,,,,,,,,,,,,,,,,,,,,,,,
0,1,1,1,1,Instructions/instr_1.png,5,19,Male,B,2020-05-20_15h38.33.450,Remembering_Displays,2020.1.2,Win32,60,,,,,,,,,,,,,,,,,,,,,,,,,
0,2,2,2,1,Instructions/instr_2.png,3,19,Male,B,2020-05-20_15h38.33.450,Remembering_Displays,2020.1.2,Win32,60,,,,,,,,,,,,,,,,,,,,,,,,,
0,3,3,3,1,Instructions/instr_3.png,5,19,Male,B,2020-05-20_15h38.33.450,Remembering_Displays,2020.1.2,Win32,60,,,,,,,,,,,,,,,,,,,,,,,,,
0,4,4,4,1,Instructions/instr_4.png,1,19,Male,B,2020-05-20_15h38.33.450,Remembering_Displays,2020.1.2,Win32,60,,,,,,,,,,,,,,,,,,,,,,,,,
0,5,5,5,1,Instructions/instr_5.png,1,19,Male,B,2020-05-20_15h38.33.450,Remembering_Displays,2020.1.2,Win32,60,,,,,,,,,,,,,,,,,,,,,,,,,
0,6,6,6,1,Instructions/instr_6.png,1,19,Male,B,2020-05-20_15h38.33.450,Remembering_Displays,2020.1.2,Win32,60,,,,,,,,,,,,,,,,,,,,,,,,,
0,7,7,7,1,Instructions/instr_7.png,1,19,Male,B,2020-05-20_15h38.33.450,Remembering_Displays,2020.1.2,Win32,60,,,,,,,,,,,,,,,,,,,,,,,,,
0,8,8,8,1,Instructions/instr_8.png,3,19,Male,B,2020-05-20_15h38.33.450,Remembering_Displays,2020.1.2,Win32,60,,,,,,,,,,,,,,,,,,,,,,,,,
0,9,9,9,1,Instructions/instr_9.png,3,19,Male,B,2020-05-20_15h38.33.450,Remembering_Displays,2020.1.2,Win32,60,,,,,,,,,,,,,,,,,,,,,,,,,
0,10,10,10,1,Instructions/instr_10.png,3,19,Male,B,2020-05-20_15h38.33.450,Remembering_Displays,2020.1.2,Win32,60,,,,,,,,,,,,,,,,,,,,,,,,,
0,11,11,11,1,Instructions/instr_11.png,3,19,Male,B,2020-05-20_15h38.33.450,Remembering_Displays,2020.1.2,Win32,60,,,,,,,,,,,,,,,,,,,,,,,,,
0,12,12,12,1,Instructions/instr_12.png,3,19,Male,B,2020-05-20_15h38.33.450,Remembering_Displays,2020.1.2,Win32,60,,,,,,,,,,,,,,,,,,,,,,,,,
0,13,13,13,1,Instructions/instr_13.png,3,19,Male,B,2020-05-20_15h38.33.450,Remembering_Displays,2020.1.2,Win32,60,,,,,,,,,,,,,,,,,,,,,,,,,
0,14,14,14,1,Instructions/instr_14.png,3,19,Male,B,2020-05-20_15h38.33.450,Remembering_Displays,2020.1.2,Win32,60,,,,,,,,,,,,,,,,,,,,,,,,,
0,15,15,15,1,Instructions/instr_15.png,3,19,Male,B,2020-05-20_15h38.33.450,Remembering_Displays,2020.1.2,Win32,60,,,,,,,,,,,,,,,,,,,,,,,,,
0,16,16,16,1,Instructions/instr_16.png,5,19,Male,B,2020-05-20_15h38.33.450,Remembering_Displays,2020.1.2,Win32,60,,,,,,,,,,,,,,,,,,,,,,,,,
,,,,,,,19,Male,B,2020-05-20_15h38.33.450,Remembering_Displays,2020.1.2,Win32,60,9,1,1.1892,9,1,11.429365,0,0,0,0,1,Stimuli/practiceStimuliCube/practice1_s.png,Stimuli/practiceStimuliCube/practice1_s.png,0,9,,,,,,,,,,
,,,,,,,19,Male,B,2020-05-20_15h38.33.450,Remembering_Displays,2020.1.2,Win32,60,9,1,0.76548,1,1,0.74056,0,1,1,5,1,Stimuli/practiceStimuliCube/practice2_s.png,Stimuli/practiceStimuliCube/practice2_s.png,0,9,,,,,,,,,,
,,,,,,,19,Male,B,2020-05-20_15h38.33.450,Remembering_Displays,2020.1.2,Win32,60,,0,,1,1,2.517275,0,2,2,6,1,Stimuli/practiceStimuliCube/practice3_s.png,Stimuli/practiceStimuliCube/practice3_d.png,1,1,,,,,,,,,,
,,,,,,,19,Male,B,2020-05-20_15h38.33.450,Remembering_Displays,2020.1.2,Win32,60,9,1,0.656285,9,1,0.716645,0,3,3,7,1,Stimuli/practiceStimuliCube/practice4_s.png,Stimuli/practiceStimuliCube/practice4_s.png,0,9,,,,,,,,,,
,,,,,,,19,Male,B,2020-05-20_15h38.33.450,Remembering_Displays,2020.1.2,Win32,60,9,0,0.93871,1,1,3.2549,0,4,4,1,1,Stimuli/practiceStimuliCube/practice2_s.png,Stimuli/practiceStimuliCube/practice2_d.png,1,1,,,,,,,,,,
,,,,,,,19,Male,B,2020-05-20_15h38.33.450,Remembering_Displays,2020.1.2,Win32,60,1,1,1.26472,1,1,1.2947,0,5,5,3,1,Stimuli/practiceStimuliCube/practice4_s.png,Stimuli/practiceStimuliCube/practice4_d.png,1,1,,,,,,,,,,
,,,,,,,19,Male,B,2020-05-20_15h38.33.450,Remembering_Displays,2020.1.2,Win32,60,9,1,0.605865,1,1,0.7305,0,6,6,2,1,Stimuli/practiceStimuliCube/practice3_s.png,Stimuli/practiceStimuliCube/practice3_s.png,0,9,,,,,,,,,,
,,,,,,,19,Male,B,2020-05-20_15h38.33.450,Remembering_Displays,2020.1.2,Win32,60,1,1,1.105095,9,1,0.75575,0,7,7,4,1,Stimuli/practiceStimuliCube/practice1_s.png,Stimuli/practiceStimuliCube/practice1_d.png,1,1,,,,,,,,,,
,,,,,,,19,Male,B,2020-05-20_15h38.33.450,Remembering_Displays,2020.1.2,Win32,60,,,,,,,,,,,,,,,,0,0,0,0,1,Stimuli/practiceListCubes.xlsx,Instructions/instr_practice_B.png,Practice trials completed,,
,,,,,,,19,Male,B,2020-05-20_15h38.33.450,Remembering_Displays,2020.1.2,Win32,60,1,1,1.11304,1,1,0.842715,0,0,0,3,1,Stimuli/testStimuliCube/6u_s_2.png,Stimuli/testStimuliCube/6u_d_2.png,1,1,,,,,,,,,c,3D
,,,,,,,19,Male,B,2020-05-20_15h38.33.450,Remembering_Displays,2020.1.2,Win32,60,1,0,1.127765,1,1,0.726025,0,1,1,4,1,Stimuli/testStimuliCube/6u_s_3.png,Stimuli/testStimuliCube/6u_s_3.png,0,9,,,,,,,,,c,3D
,,,,,,,19,Male,B,2020-05-20_15h38.33.450,Remembering_Displays,2020.1.2,Win32,60,9,1,1.04324,1,1,0.685905,0,2,2,2,1,Stimuli/testStimuliCube/6u_s_2.png,Stimuli/testStimuliCube/6u_s_2.png,0,9,,,,,,,,,c,3D
,,,,,,,19,Male,B,2020-05-20_15h38.33.450,Remembering_Displays,2020.1.2,Win32,60,1,1,1.35528,1,1,0.61532,0,3,3,17,1,Stimuli/testStimuliCube/6u_s_3_s.png,Stimuli/testStimuliCube/6u_d_3_s.png,1,1,,,,,,,,,s,3D
,,,,,,,19,Male,B,2020-05-20_15h38.33.450,Remembering_Displays,2020.1.2,Win32,60,1,1,1.034345,1,0,0.66125,0,4,4,15,1,Stimuli/testStimuliCube/6u_s_2_s.png,Stimuli/testStimuliCube/6u_d_2_s.png,1,1,,,,,,,,,s,3D
,,,,,,,19,Male,B,2020-05-20_15h38.33.450,Remembering_Displays,2020.1.2,Win32,60,9,1,1.349855,1,1,0.716245,0,5,5,6,1,Stimuli/testStimuliCube/6u_s_4.png,Stimuli/testStimuliCube/6u_s_4.png,0,9,,,,,,,,,c,3D
,,,,,,,19,Male,B,2020-05-20_15h38.33.450,Remembering_Displays,2020.1.2,Win32,60,9,1,0.912645,1,1,1.16021,0,6,6,14,1,Stimuli/testStimuliCube/6u_s_2_s.png,Stimuli/testStimuliCube/6u_s_2_s.png,0,9,,,,,,,,,s,3D
,,,,,,,19,Male,B,2020-05-20_15h38.33.450,Remembering_Displays,2020.1.2,Win32,60,1,1,1.25111,1,1,1.12841,0,7,7,9,1,Stimuli/testStimuliCube/6u_s_5.png,Stimuli/testStimuliCube/6u_d_5.png,1,1,,,,,,,,,c,3D
,,,,,,,19,Male,B,2020-05-20_15h38.33.450,Remembering_Displays,2020.1.2,Win32,60,9,1,0.926885,9,0,1.27922,0,8,8,0,1,Stimuli/testStimuliCube/6u_s_1.png,Stimuli/testStimuliCube/6u_s_1.png,0,9,,,,,,,,,c,3D
,,,,,,,19,Male,B,2020-05-20_15h38.33.450,Remembering_Displays,2020.1.2,Win32,60,1,1,1.156665,9,1,1.482945,0,9,9,13,1,Stimuli/testStimuliCube/6u_s_1_s.png,Stimuli/testStimuliCube/6u_d_1_s.png,1,1,,,,,,,,,s,3D
,,,,,,,19,Male,B,2020-05-20_15h38.33.450,Remembering_Displays,2020.1.2,Win32,60,,0,,9,1,1.620335,0,10,10,18,1,Stimuli/testStimuliCube/6u_s_4_s.png,Stimuli/testStimuliCube/6u_s_4_s.png,0,9,,,,,,,,,s,3D
,,,,,,,19,Male,B,2020-05-20_15h38.33.450,Remembering_Displays,2020.1.2,Win32,60,9,0,1.07028,1,1,1.152725,0,11,11,11,1,Stimuli/testStimuliCube/6u_s_6.png,Stimuli/testStimuliCube/6u_d_6.png,1,1,,,,,,,,,c,3D
,,,,,,,19,Male,B,2020-05-20_15h38.33.450,Remembering_Displays,2020.1.2,Win32,60,1,1,1.0567,9,1,1.136135,0,12,12,1,1,Stimuli/testStimuliCube/6u_s_1.png,Stimuli/testStimuliCube/6u_d_1.png,1,1,,,,,,,,,c,3D
,,,,,,,19,Male,B,2020-05-20_15h38.33.450,Remembering_Displays,2020.1.2,Win32,60,,0,,9,1,0.70322,0,13,13,23,1,Stimuli/testStimuliCube/6u_s_6_s.png,Stimuli/testStimuliCube/6u_d_6_s.png,1,1,,,,,,,,,s,3D
,,,,,,,19,Male,B,2020-05-20_15h38.33.450,Remembering_Displays,2020.1.2,Win32,60,9,1,1.03716,1,1,0.98056,0,14,14,20,1,Stimuli/testStimuliCube/6u_s_5_s.png,Stimuli/testStimuliCube/6u_s_5_s.png,0,9,,,,,,,,,s,3D
,,,,,,,19,Male,B,2020-05-20_15h38.33.450,Remembering_Displays,2020.1.2,Win32,60,9,1,0.851205,1,1,1.24549,0,15,15,8,1,Stimuli/testStimuliCube/6u_s_5.png,Stimuli/testStimuliCube/6u_s_5.png,0,9,,,,,,,,,c,3D
,,,,,,,19,Male,B,2020-05-20_15h38.33.450,Remembering_Displays,2020.1.2,Win32,60,1,1,1.240965,1,1,0.71105,0,16,16,21,1,Stimuli/testStimuliCube/6u_s_5_s.png,Stimuli/testStimuliCube/6u_d_5_s.png,1,1,,,,,,,,,s,3D
,,,,,,,19,Male,B,2020-05-20_15h38.33.450,Remembering_Displays,2020.1.2,Win32,60,9,1,0.690665,9,1,0.83543,0,17,17,10,1,Stimuli/testStimuliCube/6u_s_6.png,Stimuli/testStimuliCube/6u_s_6.png,0,9,,,,,,,,,c,3D
,,,,,,,19,Male,B,2020-05-20_15h38.33.450,Remembering_Displays,2020.1.2,Win32,60,1,1,1.0248,1,1,0.725985,0,18,18,5,1,Stimuli/testStimuliCube/6u_s_3.png,Stimuli/testStimuliCube/6u_d_3.png,1,1,,,,,,,,,c,3D
,,,,,,,19,Male,B,2020-05-20_15h38.33.450,Remembering_Displays,2020.1.2,Win32,60,1,1,1.079855,1,1,1.12664,0,19,19,7,1,Stimuli/testStimuliCube/6u_s_4.png,Stimuli/testStimuliCube/6u_d_4.png,1,1,,,,,,,,,c,3D
,,,,,,,19,Male,B,2020-05-20_15h38.33.450,Remembering_Displays,2020.1.2,Win32,60,1,1,0.899945,1,1,0.488685,0,20,20,19,1,Stimuli/testStimuliCube/6u_s_4_s.png,Stimuli/testStimuliCube/6u_d_4_s.png,1,1,,,,,,,,,s,3D
,,,,,,,19,Male,B,2020-05-20_15h38.33.450,Remembering_Displays,2020.1.2,Win32,60,9,1,0.537125,1,1,0.549565,0,21,21,16,1,Stimuli/testStimuliCube/6u_s_3_s.png,Stimuli/testStimuliCube/6u_s_3_s.png,0,9,,,,,,,,,s,3D
,,,,,,,19,Male,B,2020-05-20_15h38.33.450,Remembering_Displays,2020.1.2,Win32,60,9,1,0.606145,1,0,0.481,0,22,22,12,1,Stimuli/testStimuliCube/6u_s_1_s.png,Stimuli/testStimuliCube/6u_s_1_s.png,0,9,,,,,,,,,s,3D
,,,,,,,19,Male,B,2020-05-20_15h38.33.450,Remembering_Displays,2020.1.2,Win32,60,1,0,0.99558,9,1,0.842255,0,23,23,22,1,Stimuli/testStimuliCube/6u_s_6_s.png,Stimuli/testStimuliCube/6u_s_6_s.png,0,9,,,,,,,,,s,3D
,,,,,,,19,Male,B,2020-05-20_15h38.33.450,Remembering_Displays,2020.1.2,Win32,60,,,,,,,,,,,,,,,,0,1,1,1,1,Stimuli/trialListCubes1.xlsx,Instructions/instr_19.png,Progress: 24 of 192 trials completed,,
,,,,,,,19,Male,B,2020-05-20_15h38.33.450,Remembering_Displays,2020.1.2,Win32,60,1,1,1.11441,1,1,1.022095,0,0,0,3,1,Stimuli/practiceStimuliSquare/practice4_s.png,Stimuli/practiceStimuliSquare/practice4_d.png,1,1,,,,,,,,,,
,,,,,,,19,Male,B,2020-05-20_15h38.33.450,Remembering_Displays,2020.1.2,Win32,60,9,1,0.57309,9,1,0.738925,0,1,1,7,1,Stimuli/practiceStimuliSquare/practice4_s.png,Stimuli/practiceStimuliSquare/practice4_s.png,0,9,,,,,,,,,,
,,,,,,,19,Male,B,2020-05-20_15h38.33.450,Remembering_Displays,2020.1.2,Win32,60,1,1,1.02336,9,1,0.86234,0,2,2,1,1,Stimuli/practiceStimuliSquare/practice2_s.png,Stimuli/practiceStimuliSquare/practice2_d.png,1,1,,,,,,,,,,
,,,,,,,19,Male,B,2020-05-20_15h38.33.450,Remembering_Displays,2020.1.2,Win32,60,9,1,1.085465,1,1,0.628845,0,3,3,0,1,Stimuli/practiceStimuliSquare/practice1_s.png,Stimuli/practiceStimuliSquare/practice1_s.png,0,9,,,,,,,,,,
,,,,,,,19,Male,B,2020-05-20_15h38.33.450,Remembering_Displays,2020.1.2,Win32,60,9,1,0.77659,1,1,0.787715,0,4,4,5,1,Stimuli/practiceStimuliSquare/practice2_s.png,Stimuli/practiceStimuliSquare/practice2_s.png,0,9,,,,,,,,,,
,,,,,,,19,Male,B,2020-05-20_15h38.33.450,Remembering_Displays,2020.1.2,Win32,60,9,0,0.65338,9,1,0.728325,0,5,5,6,1,Stimuli/practiceStimuliSquare/practice3_s.png,Stimuli/practiceStimuliSquare/practice3_d.png,1,1,,,,,,,,,,
,,,,,,,19,Male,B,2020-05-20_15h38.33.450,Remembering_Displays,2020.1.2,Win32,60,9,1,0.503135,1,1,1.313885,0,6,6,2,1,Stimuli/practiceStimuliSquare/practice3_s.png,Stimuli/practiceStimuliSquare/practice3_s.png,0,9,,,,,,,,,,
,,,,,,,19,Male,B,2020-05-20_15h38.33.450,Remembering_Displays,2020.1.2,Win32,60,1,1,0.662405,9,1,0.77619,0,7,7,4,1,Stimuli/practiceStimuliSquare/practice1_s.png,Stimuli/practiceStimuliSquare/practice1_d.png,1,1,,,,,,,,,,
,,,,,,,19,Male,B,2020-05-20_15h38.33.450,Remembering_Displays,2020.1.2,Win32,60,,,,,,,,,,,,,,,,0,2,2,2,1,Stimuli/practiceListSquares.xlsx,Instructions/instr_practice_A.png,Practice trials completed,,
,,,,,,,19,Male,B,2020-05-20_15h38.33.450,Remembering_Displays,2020.1.2,Win32,60,9,1,0.58181,1,1,0.42767,0,0,0,12,1,Stimuli/testStimuliSquare/6u_s_19_s_2D.png,Stimuli/testStimuliSquare/6u_s_19_s_2D.png,0,9,,,,,,,,,s,2D
,,,,,,,19,Male,B,2020-05-20_15h38.33.450,Remembering_Displays,2020.1.2,Win32,60,1,1,0.67094,1,1,0.45956,0,1,1,13,1,Stimuli/testStimuliSquare/6u_s_19_s_2D.png,Stimuli/testStimuliSquare/6u_d_19_s_2D.png,1,1,,,,,,,,,s,2D
,,,,,,,19,Male,B,2020-05-20_15h38.33.450,Remembering_Displays,2020.1.2,Win32,60,9,1,0.7241,9,1,1.07351,0,2,2,8,1,Stimuli/testStimuliSquare/6u_s_23_2D.png,Stimuli/testStimuliSquare/6u_s_23_2D.png,0,9,,,,,,,,,c,2D
,,,,,,,19,Male,B,2020-05-20_15h38.33.450,Remembering_Displays,2020.1.2,Win32,60,9,1,0.557445,1,1,0.783065,0,3,3,14,1,Stimuli/testStimuliSquare/6u_s_20_s_2D.png,Stimuli/testStimuliSquare/6u_s_20_s_2D.png,0,9,,,,,,,,,s,2D
,,,,,,,19,Male,B,2020-05-20_15h38.33.450,Remembering_Displays,2020.1.2,Win32,60,9,1,0.538465,9,1,0.42978,0,4,4,2,1,Stimuli/testStimuliSquare/6u_s_20_2D.png,Stimuli/testStimuliSquare/6u_s_20_2D.png,0,9,,,,,,,,,c,2D
,,,,,,,19,Male,B,2020-05-20_15h38.33.450,Remembering_Displays,2020.1.2,Win32,60,1,1,0.83294,1,1,1.14319,0,5,5,3,1,Stimuli/testStimuliSquare/6u_s_20_2D.png,Stimuli/testStimuliSquare/6u_d_20_2D.png,1,1,,,,,,,,,c,2D
,,,,,,,19,Male,B,2020-05-20_15h38.33.450,Remembering_Displays,2020.1.2,Win32,60,1,1,0.80684,1,1,0.61593,0,6,6,1,1,Stimuli/testStimuliSquare/6u_s_19_2D.png,Stimuli/testStimuliSquare/6u_d_19_2D.png,1,1,,,,,,,,,c,2D
,,,,,,,19,Male,B,2020-05-20_15h38.33.450,Remembering_Displays,2020.1.2,Win32,60,9,0,0.57299,1,1,0.87046,0,7,7,21,1,Stimuli/testStimuliSquare/6u_s_23_s_2D.png,Stimuli/testStimuliSquare/6u_d_23_s_2D.png,1,1,,,,,,,,,s,2D
,,,,,,,19,Male,B,2020-05-20_15h38.33.450,Remembering_Displays,2020.1.2,Win32,60,1,1,0.8491,1,1,0.72431,0,8,8,5,1,Stimuli/testStimuliSquare/6u_s_21_2D.png,Stimuli/testStimuliSquare/6u_d_21_2D.png,1,1,,,,,,,,,c,2D
,,,,,,,19,Male,B,2020-05-20_15h38.33.450,Remembering_Displays,2020.1.2,Win32,60,9,1,0.92669,9,1,0.876235,0,9,9,18,1,Stimuli/testStimuliSquare/6u_s_22_s_2D.png,Stimuli/testStimuliSquare/6u_s_22_s_2D.png,0,9,,,,,,,,,s,2D
,,,,,,,19,Male,B,2020-05-20_15h38.33.450,Remembering_Displays,2020.1.2,Win32,60,9,1,0.6905,9,1,0.98742,0,10,10,0,1,Stimuli/testStimuliSquare/6u_s_19_2D.png,Stimuli/testStimuliSquare/6u_s_19_2D.png,0,9,,,,,,,,,c,2D
,,,,,,,19,Male,B,2020-05-20_15h38.33.450,Remembering_Displays,2020.1.2,Win32,60,1,1,0.66877,9,1,0.716755,0,11,11,7,1,Stimuli/testStimuliSquare/6u_s_22_2D.png,Stimuli/testStimuliSquare/6u_d_22_2D.png,1,1,,,,,,,,,c,2D
,,,,,,,19,Male,B,2020-05-20_15h38.33.450,Remembering_Displays,2020.1.2,Win32,60,9,1,0.64865,9,1,0.96257,0,12,12,20,1,Stimuli/testStimuliSquare/6u_s_23_s_2D.png,Stimuli/testStimuliSquare/6u_s_23_s_2D.png,0,9,,,,,,,,,s,2D
,,,,,,,19,Male,B,2020-05-20_15h38.33.450,Remembering_Displays,2020.1.2,Win32,60,9,1,0.58434,9,1,0.420995,0,13,13,4,1,Stimuli/testStimuliSquare/6u_s_21_2D.png,Stimuli/testStimuliSquare/6u_s_21_2D.png,0,9,,,,,,,,,c,2D
,,,,,,,19,Male,B,2020-05-20_15h38.33.450,Remembering_Displays,2020.1.2,Win32,60,1,1,0.45411,9,1,0.51767,0,14,14,15,1,Stimuli/testStimuliSquare/6u_s_20_s_2D.png,Stimuli/testStimuliSquare/6u_d_20_s_2D.png,1,1,,,,,,,,,s,2D
,,,,,,,19,Male,B,2020-05-20_15h38.33.450,Remembering_Displays,2020.1.2,Win32,60,9,1,0.66911,9,1,0.514345,0,15,15,16,1,Stimuli/testStimuliSquare/6u_s_21_s_2D.png,Stimuli/testStimuliSquare/6u_s_21_s_2D.png,0,9,,,,,,,,,s,2D
,,,,,,,19,Male,B,2020-05-20_15h38.33.450,Remembering_Displays,2020.1.2,Win32,60,1,1,0.62,9,1,0.384015,0,16,16,19,1,Stimuli/testStimuliSquare/6u_s_22_s_2D.png,Stimuli/testStimuliSquare/6u_d_22_s_2D.png,1,1,,,,,,,,,s,2D
,,,,,,,19,Male,B,2020-05-20_15h38.33.450,Remembering_Displays,2020.1.2,Win32,60,1,1,0.79989,9,1,0.810585,0,17,17,11,1,Stimuli/testStimuliSquare/6u_s_24_2D.png,Stimuli/testStimuliSquare/6u_d_24_2D.png,1,1,,,,,,,,,c,2D
,,,,,,,19,Male,B,2020-05-20_15h38.33.450,Remembering_Displays,2020.1.2,Win32,60,1,0,1.003955,1,1,0.536515,0,18,18,10,1,Stimuli/testStimuliSquare/6u_s_24_2D.png,Stimuli/testStimuliSquare/6u_s_24_2D.png,0,9,,,,,,,,,c,2D
,,,,,,,19,Male,B,2020-05-20_15h38.33.450,Remembering_Displays,2020.1.2,Win32,60,9,1,0.56584,1,1,0.327715,0,19,19,6,1,Stimuli/testStimuliSquare/6u_s_22_2D.png,Stimuli/testStimuliSquare/6u_s_22_2D.png,0,9,,,,,,,,,c,2D
,,,,,,,19,Male,B,2020-05-20_15h38.33.450,Remembering_Displays,2020.1.2,Win32,60,9,0,0.768495,1,0,0.79054,0,20,20,9,1,Stimuli/testStimuliSquare/6u_s_23_2D.png,Stimuli/testStimuliSquare/6u_d_23_2D.png,1,1,,,,,,,,,c,2D
,,,,,,,19,Male,B,2020-05-20_15h38.33.450,Remembering_Displays,2020.1.2,Win32,60,1,1,1.089475,1,1,0.839435,0,21,21,17,1,Stimuli/testStimuliSquare/6u_s_21_s_2D.png,Stimuli/testStimuliSquare/6u_d_21_s_2D.png,1,1,,,,,,,,,s,2D
,,,,,,,19,Male,B,2020-05-20_15h38.33.450,Remembering_Displays,2020.1.2,Win32,60,1,1,0.81697,9,1,0.842585,0,22,22,23,1,Stimuli/testStimuliSquare/6u_s_24_s_2D.png,Stimuli/testStimuliSquare/6u_d_24_s_2D.png,1,1,,,,,,,,,s,2D
,,,,,,,19,Male,B,2020-05-20_15h38.33.450,Remembering_Displays,2020.1.2,Win32,60,9,1,0.72414,9,1,0.63342,0,23,23,22,1,Stimuli/testStimuliSquare/6u_s_24_s_2D.png,Stimuli/testStimuliSquare/6u_s_24_s_2D.png,0,9,,,,,,,,,s,2D
,,,,,,,19,Male,B,2020-05-20_15h38.33.450,Remembering_Displays,2020.1.2,Win32,60,,,,,,,,,,,,,,,,0,3,3,3,1,Stimuli/trialListSquares4.xlsx,Instructions/instr_18.png,Progress: 48 of 192 trials completed,,
,,,,,,,19,Male,B,2020-05-20_15h38.33.450,Remembering_Displays,2020.1.2,Win32,60,9,1,0.619995,1,1,0.431345,0,0,0,20,1,Stimuli/testStimuliCube/6u_s_11_s.png,Stimuli/testStimuliCube/6u_s_11_s.png,0,9,,,,,,,,,s,3D
,,,,,,,19,Male,B,2020-05-20_15h38.33.450,Remembering_Displays,2020.1.2,Win32,60,1,1,1.0529,9,0,0.574745,0,1,1,21,1,Stimuli/testStimuliCube/6u_s_11_s.png,Stimuli/testStimuliCube/6u_d_11_s.png,1,1,,,,,,,,,s,3D
,,,,,,,19,Male,B,2020-05-20_15h38.33.450,Remembering_Displays,2020.1.2,Win32,60,9,0,0.67359,9,0,1.44629,0,2,2,23,1,Stimuli/testStimuliCube/6u_s_12_s.png,Stimuli/testStimuliCube/6u_d_12_s.png,1,1,,,,,,,,,s,3D
,,,,,,,19,Male,B,2020-05-20_15h38.33.450,Remembering_Displays,2020.1.2,Win32,60,,0,,1,1,0.758,0,3,3,12,1,Stimuli/testStimuliCube/6u_s_7_s.png,Stimuli/testStimuliCube/6u_s_7_s.png,0,9,,,,,,,,,s,3D
,,,,,,,19,Male,B,2020-05-20_15h38.33.450,Remembering_Displays,2020.1.2,Win32,60,9,1,0.73343,1,1,0.39027,0,4,4,10,1,Stimuli/testStimuliCube/6u_s_12.png,Stimuli/testStimuliCube/6u_s_12.png,0,9,,,,,,,,,c,3D
,,,,,,,19,Male,B,2020-05-20_15h38.33.450,Remembering_Displays,2020.1.2,Win32,60,1,1,0.57878,9,1,0.803105,0,5,5,19,1,Stimuli/testStimuliCube/6u_s_10_s.png,Stimuli/testStimuliCube/6u_d_10_s.png,1,1,,,,,,,,,s,3D
,,,,,,,19,Male,B,2020-05-20_15h38.33.450,Remembering_Displays,2020.1.2,Win32,60,9,0,0.877355,1,1,0.828835,0,6,6,5,1,Stimuli/testStimuliCube/6u_s_9.png,Stimuli/testStimuliCube/6u_d_9.png,1,1,,,,,,,,,c,3D
,,,,,,,19,Male,B,2020-05-20_15h38.33.450,Remembering_Displays,2020.1.2,Win32,60,1,1,1.021125,9,1,0.69402,0,7,7,1,1,Stimuli/testStimuliCube/6u_s_7.png,Stimuli/testStimuliCube/6u_d_7.png,1,1,,,,,,,,,c,3D
,,,,,,,19,Male,B,2020-05-20_15h38.33.450,Remembering_Displays,2020.1.2,Win32,60,1,1,0.7437,9,1,0.82904,0,8,8,11,1,Stimuli/testStimuliCube/6u_s_12.png,Stimuli/testStimuliCube/6u_d_12.png,1,1,,,,,,,,,c,3D
,,,,,,,19,Male,B,2020-05-20_15h38.33.450,Remembering_Displays,2020.1.2,Win32,60,9,0,0.675305,1,1,0.441885,0,9,9,7,1,Stimuli/testStimuliCube/6u_s_10.png,Stimuli/testStimuliCube/6u_d_10.png,1,1,,,,,,,,,c,3D
,,,,,,,19,Male,B,2020-05-20_15h38.33.450,Remembering_Displays,2020.1.2,Win32,60,1,0,1.399735,1,1,1.335275,0,10,10,2,1,Stimuli/testStimuliCube/6u_s_8.png,Stimuli/testStimuliCube/6u_s_8.png,0,9,,,,,,,,,c,3D
,,,,,,,19,Male,B,2020-05-20_15h38.33.450,Remembering_Displays,2020.1.2,Win32,60,9,1,0.604615,1,1,0.78603,0,11,11,8,1,Stimuli/testStimuliCube/6u_s_11.png,Stimuli/testStimuliCube/6u_s_11.png,0,9,,,,,,,,,c,3D
,,,,,,,19,Male,B,2020-05-20_15h38.33.450,Remembering_Displays,2020.1.2,Win32,60,9,0,0.706495,1,1,1.109935,0,12,12,9,1,Stimuli/testStimuliCube/6u_s_11.png,Stimuli/testStimuliCube/6u_d_11.png,1,1,,,,,,,,,c,3D
,,,,,,,19,Male,B,2020-05-20_15h38.33.450,Remembering_Displays,2020.1.2,Win32,60,9,1,0.719145,1,1,0.40399,0,13,13,22,1,Stimuli/testStimuliCube/6u_s_12_s.png,Stimuli/testStimuliCube/6u_s_12_s.png,0,9,,,,,,,,,s,3D
,,,,,,,19,Male,B,2020-05-20_15h38.33.450,Remembering_Displays,2020.1.2,Win32,60,1,1,0.873855,1,1,0.48201,0,14,14,3,1,Stimuli/testStimuliCube/6u_s_8.png,Stimuli/testStimuliCube/6u_d_8.png,1,1,,,,,,,,,c,3D
,,,,,,,19,Male,B,2020-05-20_15h38.33.450,Remembering_Displays,2020.1.2,Win32,60,9,1,1.319605,9,1,0.602105,0,15,15,16,1,Stimuli/testStimuliCube/6u_s_9_s.png,Stimuli/testStimuliCube/6u_s_9_s.png,0,9,,,,,,,,,s,3D
,,,,,,,19,Male,B,2020-05-20_15h38.33.450,Remembering_Displays,2020.1.2,Win32,60,9,1,0.52195,9,1,0.656065,0,16,16,4,1,Stimuli/testStimuliCube/6u_s_9.png,Stimuli/testStimuliCube/6u_s_9.png,0,9,,,,,,,,,c,3D
,,,,,,,19,Male,B,2020-05-20_15h38.33.450,Remembering_Displays,2020.1.2,Win32,60,9,1,0.570585,1,1,0.66117,0,17,17,14,1,Stimuli/testStimuliCube/6u_s_8_s.png,Stimuli/testStimuliCube/6u_s_8_s.png,0,9,,,,,,,,,s,3D
,,,,,,,19,Male,B,2020-05-20_15h38.33.450,Remembering_Displays,2020.1.2,Win32,60,1,1,0.566125,1,1,0.58383,0,18,18,15,1,Stimuli/testStimuliCube/6u_s_8_s.png,Stimuli/testStimuliCube/6u_d_8_s.png,1,1,,,,,,,,,s,3D
,,,,,,,19,Male,B,2020-05-20_15h38.33.450,Remembering_Displays,2020.1.2,Win32,60,1,1,0.44456,1,1,0.472985,0,19,19,17,1,Stimuli/testStimuliCube/6u_s_9_s.png,Stimuli/testStimuliCube/6u_d_9_s.png,1,1,,,,,,,,,s,3D
,,,,,,,19,Male,B,2020-05-20_15h38.33.450,Remembering_Displays,2020.1.2,Win32,60,9,1,0.9273,9,1,0.91106,0,20,20,6,1,Stimuli/testStimuliCube/6u_s_10.png,Stimuli/testStimuliCube/6u_s_10.png,0,9,,,,,,,,,c,3D
,,,,,,,19,Male,B,2020-05-20_15h38.33.450,Remembering_Displays,2020.1.2,Win32,60,9,1,0.504795,1,1,0.876365,0,21,21,18,1,Stimuli/testStimuliCube/6u_s_10_s.png,Stimuli/testStimuliCube/6u_s_10_s.png,0,9,,,,,,,,,s,3D
,,,,,,,19,Male,B,2020-05-20_15h38.33.450,Remembering_Displays,2020.1.2,Win32,60,9,1,0.593315,9,1,0.460165,0,22,22,0,1,Stimuli/testStimuliCube/6u_s_7.png,Stimuli/testStimuliCube/6u_s_7.png,0,9,,,,,,,,,c,3D
,,,,,,,19,Male,B,2020-05-20_15h38.33.450,Remembering_Displays,2020.1.2,Win32,60,1,1,0.525585,9,1,0.952405,0,23,23,13,1,Stimuli/testStimuliCube/6u_s_7_s.png,Stimuli/testStimuliCube/6u_d_7_s.png,1,1,,,,,,,,,s,3D
,,,,,,,19,Male,B,2020-05-20_15h38.33.450,Remembering_Displays,2020.1.2,Win32,60,,,,,,,,,,,,,,,,0,4,4,4,1,Stimuli/trialListCubes2.xlsx,Instructions/instr_19.png,Progress: 72 of 192 trials completed,,
,,,,,,,19,Male,B,2020-05-20_15h38.33.450,Remembering_Displays,2020.1.2,Win32,60,9,1,0.654395,1,0,1.4215,0,0,0,12,1,Stimuli/testStimuliSquare/6u_s_13_s_2D.png,Stimuli/testStimuliSquare/6u_s_13_s_2D.png,0,9,,,,,,,,,s,2D
,,,,,,,19,Male,B,2020-05-20_15h38.33.450,Remembering_Displays,2020.1.2,Win32,60,9,1,0.858725,1,1,0.39756,0,1,1,10,1,Stimuli/testStimuliSquare/6u_s_18_2D.png,Stimuli/testStimuliSquare/6u_s_18_2D.png,0,9,,,,,,,,,c,2D
,,,,,,,19,Male,B,2020-05-20_15h38.33.450,Remembering_Displays,2020.1.2,Win32,60,9,0,0.612225,1,1,0.3652,0,2,2,13,1,Stimuli/testStimuliSquare/6u_s_13_s_2D.png,Stimuli/testStimuliSquare/6u_d_13_s_2D.png,1,1,,,,,,,,,s,2D
,,,,,,,19,Male,B,2020-05-20_15h38.33.450,Remembering_Displays,2020.1.2,Win32,60,1,1,0.996185,1,1,0.68192,0,3,3,15,1,Stimuli/testStimuliSquare/6u_s_14_s_2D.png,Stimuli/testStimuliSquare/6u_d_14_s_2D.png,1,1,,,,,,,,,s,2D
,,,,,,,19,Male,B,2020-05-20_15h38.33.450,Remembering_Displays,2020.1.2,Win32,60,9,1,0.74168,1,1,0.598785,0,4,4,14,1,Stimuli/testStimuliSquare/6u_s_14_s_2D.png,Stimuli/testStimuliSquare/6u_s_14_s_2D.png,0,9,,,,,,,,,s,2D
,,,,,,,19,Male,B,2020-05-20_15h38.33.450,Remembering_Displays,2020.1.2,Win32,60,1,1,0.60631,9,1,0.608305,0,5,5,19,1,Stimuli/testStimuliSquare/6u_s_16_s_2D.png,Stimuli/testStimuliSquare/6u_d_16_s_2D.png,1,1,,,,,,,,,s,2D
,,,,,,,19,Male,B,2020-05-20_15h38.33.450,Remembering_Displays,2020.1.2,Win32,60,9,1,0.816985,1,1,0.452815,0,6,6,16,1,Stimuli/testStimuliSquare/6u_s_15_s_2D.png,Stimuli/testStimuliSquare/6u_s_15_s_2D.png,0,9,,,,,,,,,s,2D
,,,,,,,19,Male,B,2020-05-20_15h38.33.450,Remembering_Displays,2020.1.2,Win32,60,9,1,0.64713,9,1,0.99425,0,7,7,18,1,Stimuli/testStimuliSquare/6u_s_16_s_2D.png,Stimuli/testStimuliSquare/6u_s_16_s_2D.png,0,9,,,,,,,,,s,2D
,,,,,,,19,Male,B,2020-05-20_15h38.33.450,Remembering_Displays,2020.1.2,Win32,60,9,1,0.535165,9,1,1.007945,0,8,8,6,1,Stimuli/testStimuliSquare/6u_s_16_2D.png,Stimuli/testStimuliSquare/6u_s_16_2D.png,0,9,,,,,,,,,c,2D
,,,,,,,19,Male,B,2020-05-20_15h38.33.450,Remembering_Displays,2020.1.2,Win32,60,1,1,0.596315,9,1,0.60939,0,9,9,7,1,Stimuli/testStimuliSquare/6u_s_16_2D.png,Stimuli/testStimuliSquare/6u_d_16_2D.png,1,1,,,,,,,,,c,2D
,,,,,,,19,Male,B,2020-05-20_15h38.33.450,Remembering_Displays,2020.1.2,Win32,60,1,1,1.005905,1,1,0.862825,0,10,10,1,1,Stimuli/testStimuliSquare/6u_s_13_2D.png,Stimuli/testStimuliSquare/6u_d_13_2D.png,1,1,,,,,,,,,c,2D
,,,,,,,19,Male,B,2020-05-20_15h38.33.450,Remembering_Displays,2020.1.2,Win32,60,1,1,0.527545,9,1,0.75791,0,11,11,3,1,Stimuli/testStimuliSquare/6u_s_14_2D.png,Stimuli/testStimuliSquare/6u_d_14_2D.png,1,1,,,,,,,,,c,2D
,,,,,,,19,Male,B,2020-05-20_15h38.33.450,Remembering_Displays,2020.1.2,Win32,60,9,1,0.58086,9,1,0.39688,0,12,12,0,1,Stimuli/testStimuliSquare/6u_s_13_2D.png,Stimuli/testStimuliSquare/6u_s_13_2D.png,0,9,,,,,,,,,c,2D
,,,,,,,19,Male,B,2020-05-20_15h38.33.450,Remembering_Displays,2020.1.2,Win32,60,9,1,0.529515,1,1,0.565795,0,13,13,8,1,Stimuli/testStimuliSquare/6u_s_17_2D.png,Stimuli/testStimuliSquare/6u_s_17_2D.png,0,9,,,,,,,,,c,2D
,,,,,,,19,Male,B,2020-05-20_15h38.33.450,Remembering_Displays,2020.1.2,Win32,60,9,1,0.69158,1,1,0.603805,0,14,14,2,1,Stimuli/testStimuliSquare/6u_s_14_2D.png,Stimuli/testStimuliSquare/6u_s_14_2D.png,0,9,,,,,,,,,c,2D
,,,,,,,19,Male,B,2020-05-20_15h38.33.450,Remembering_Displays,2020.1.2,Win32,60,9,1,0.579175,9,1,1.56864,0,15,15,22,1,Stimuli/testStimuliSquare/6u_s_18_s_2D.png,Stimuli/testStimuliSquare/6u_s_18_s_2D.png,0,9,,,,,,,,,s,2D
,,,,,,,19,Male,B,2020-05-20_15h38.33.450,Remembering_Displays,2020.1.2,Win32,60,1,1,0.82369,1,1,0.69069,0,16,16,23,1,Stimuli/testStimuliSquare/6u_s_18_s_2D.png,Stimuli/testStimuliSquare/6u_d_18_s_2D.png,1,1,,,,,,,,,s,2D
,,,,,,,19,Male,B,2020-05-20_15h38.33.450,Remembering_Displays,2020.1.2,Win32,60,1,1,0.59696,9,0,0.9475,0,17,17,9,1,Stimuli/testStimuliSquare/6u_s_17_2D.png,Stimuli/testStimuliSquare/6u_d_17_2D.png,1,1,,,,,,,,,c,2D
,,,,,,,19,Male,B,2020-05-20_15h38.33.450,Remembering_Displays,2020.1.2,Win32,60,9,1,0.881215,9,1,0.909745,0,18,18,4,1,Stimuli/testStimuliSquare/6u_s_15_2D.png,Stimuli/testStimuliSquare/6u_s_15_2D.png,0,9,,,,,,,,,c,2D
,,,,,,,19,Male,B,2020-05-20_15h38.33.450,Remembering_Displays,2020.1.2,Win32,60,1,1,0.65206,1,1,1.103985,0,19,19,5,1,Stimuli/testStimuliSquare/6u_s_15_2D.png,Stimuli/testStimuliSquare/6u_d_15_2D.png,1,1,,,,,,,,,c,2D
,,,,,,,19,Male,B,2020-05-20_15h38.33.450,Remembering_Displays,2020.1.2,Win32,60,1,1,0.671535,1,1,0.943855,0,20,20,21,1,Stimuli/testStimuliSquare/6u_s_17_s_2D.png,Stimuli/testStimuliSquare/6u_d_17_s_2D.png,1,1,,,,,,,,,s,2D
,,,,,,,19,Male,B,2020-05-20_15h38.33.450,Remembering_Displays,2020.1.2,Win32,60,1,1,0.867905,9,1,0.820525,0,21,21,11,1,Stimuli/testStimuliSquare/6u_s_18_2D.png,Stimuli/testStimuliSquare/6u_d_18_2D.png,1,1,,,,,,,,,c,2D
,,,,,,,19,Male,B,2020-05-20_15h38.33.450,Remembering_Displays,2020.1.2,Win32,60,1,1,0.7034,9,1,0.96755,0,22,22,17,1,Stimuli/testStimuliSquare/6u_s_15_s_2D.png,Stimuli/testStimuliSquare/6u_d_15_s_2D.png,1,1,,,,,,,,,s,2D
,,,,,,,19,Male,B,2020-05-20_15h38.33.450,Remembering_Displays,2020.1.2,Win32,60,9,1,0.6964,1,1,0.375945,0,23,23,20,1,Stimuli/testStimuliSquare/6u_s_17_s_2D.png,Stimuli/testStimuliSquare/6u_s_17_s_2D.png,0,9,,,,,,,,,s,2D
,,,,,,,19,Male,B,2020-05-20_15h38.33.450,Remembering_Displays,2020.1.2,Win32,60,,,,,,,,,,,,,,,,0,5,5,5,1,Stimuli/trialListSquares3.xlsx,Instructions/instr_18.png,Progress: 96 of 192 trials completed,,
,,,,,,,19,Male,B,2020-05-20_15h38.33.450,Remembering_Displays,2020.1.2,Win32,60,9,0,0.638485,9,1,0.78648,0,0,0,11,1,Stimuli/testStimuliCube/6u_s_18.png,Stimuli/testStimuliCube/6u_d_18.png,1,1,,,,,,,,,c,3D
,,,,,,,19,Male,B,2020-05-20_15h38.33.450,Remembering_Displays,2020.1.2,Win32,60,9,1,0.59935,9,1,0.738085,0,1,1,18,1,Stimuli/testStimuliCube/6u_s_16_s.png,Stimuli/testStimuliCube/6u_s_16_s.png,0,9,,,,,,,,,s,3D
,,,,,,,19,Male,B,2020-05-20_15h38.33.450,Remembering_Displays,2020.1.2,Win32,60,9,1,0.61484,1,1,0.53191,0,2,2,4,1,Stimuli/testStimuliCube/6u_s_15.png,Stimuli/testStimuliCube/6u_s_15.png,0,9,,,,,,,,,c,3D
,,,,,,,19,Male,B,2020-05-20_15h38.33.450,Remembering_Displays,2020.1.2,Win32,60,1,1,0.55227,9,1,1.314605,0,3,3,19,1,Stimuli/testStimuliCube/6u_s_16_s.png,Stimuli/testStimuliCube/6u_d_16_s.png,1,1,,,,,,,,,s,3D
,,,,,,,19,Male,B,2020-05-20_15h38.33.450,Remembering_Displays,2020.1.2,Win32,60,1,1,0.53452,9,1,0.6624,0,4,4,5,1,Stimuli/testStimuliCube/6u_s_15.png,Stimuli/testStimuliCube/6u_d_15.png,1,1,,,,,,,,,c,3D
,,,,,,,19,Male,B,2020-05-20_15h38.33.450,Remembering_Displays,2020.1.2,Win32,60,9,1,0.627,1,1,1.00864,0,5,5,12,1,Stimuli/testStimuliCube/6u_s_13_s.png,Stimuli/testStimuliCube/6u_s_13_s.png,0,9,,,,,,,,,s,3D
,,,,,,,19,Male,B,2020-05-20_15h38.33.450,Remembering_Displays,2020.1.2,Win32,60,9,1,0.6205,1,1,0.709395,0,6,6,16,1,Stimuli/testStimuliCube/6u_s_15_s.png,Stimuli/testStimuliCube/6u_s_15_s.png,0,9,,,,,,,,,s,3D
,,,,,,,19,Male,B,2020-05-20_15h38.33.450,Remembering_Displays,2020.1.2,Win32,60,1,0,0.85569,9,1,1.08734,0,7,7,14,1,Stimuli/testStimuliCube/6u_s_14_s.png,Stimuli/testStimuliCube/6u_s_14_s.png,0,9,,,,,,,,,s,3D
,,,,,,,19,Male,B,2020-05-20_15h38.33.450,Remembering_Displays,2020.1.2,Win32,60,1,1,0.495345,9,1,0.591085,0,8,8,17,1,Stimuli/testStimuliCube/6u_s_15_s.png,Stimuli/testStimuliCube/6u_d_15_s.png,1,1,,,,,,,,,s,3D
,,,,,,,19,Male,B,2020-05-20_15h38.33.450,Remembering_Displays,2020.1.2,Win32,60,9,1,0.63573,1,1,0.40671,0,9,9,0,1,Stimuli/testStimuliCube/6u_s_13.png,Stimuli/testStimuliCube/6u_s_13.png,0,9,,,,,,,,,c,3D
,,,,,,,19,Male,B,2020-05-20_15h38.33.450,Remembering_Displays,2020.1.2,Win32,60,1,1,0.56156,9,1,0.574185,0,10,10,9,1,Stimuli/testStimuliCube/6u_s_17.png,Stimuli/testStimuliCube/6u_d_17.png,1,1,,,,,,,,,c,3D
,,,,,,,19,Male,B,2020-05-20_15h38.33.450,Remembering_Displays,2020.1.2,Win32,60,9,1,0.565755,1,1,0.952815,0,11,11,2,1,Stimuli/testStimuliCube/6u_s_14.png,Stimuli/testStimuliCube/6u_s_14.png,0,9,,,,,,,,,c,3D
,,,,,,,19,Male,B,2020-05-20_15h38.33.450,Remembering_Displays,2020.1.2,Win32,60,1,1,0.655165,9,1,0.571035,0,12,12,3,1,Stimuli/testStimuliCube/6u_s_14.png,Stimuli/testStimuliCube/6u_d_14.png,1,1,,,,,,,,,c,3D
,,,,,,,19,Male,B,2020-05-20_15h38.33.450,Remembering_Displays,2020.1.2,Win32,60,9,1,0.697205,1,1,0.421435,0,13,13,22,1,Stimuli/testStimuliCube/6u_s_18_s.png,Stimuli/testStimuliCube/6u_s_18_s.png,0,9,,,,,,,,,s,3D
,,,,,,,19,Male,B,2020-05-20_15h38.33.450,Remembering_Displays,2020.1.2,Win32,60,9,1,1.085055,1,1,0.48027,0,14,14,8,1,Stimuli/testStimuliCube/6u_s_17.png,Stimuli/testStimuliCube/6u_s_17.png,0,9,,,,,,,,,c,3D
,,,,,,,19,Male,B,2020-05-20_15h38.33.450,Remembering_Displays,2020.1.2,Win32,60,1,1,0.61253,1,1,0.480325,0,15,15,7,1,Stimuli/testStimuliCube/6u_s_16.png,Stimuli/testStimuliCube/6u_d_16.png,1,1,,,,,,,,,c,3D
,,,,,,,19,Male,B,2020-05-20_15h38.33.450,Remembering_Displays,2020.1.2,Win32,60,9,1,0.61127,1,1,0.44918,0,16,16,10,1,Stimuli/testStimuliCube/6u_s_18.png,Stimuli/testStimuliCube/6u_s_18.png,0,9,,,,,,,,,c,3D
,,,,,,,19,Male,B,2020-05-20_15h38.33.450,Remembering_Displays,2020.1.2,Win32,60,1,1,0.63407,1,1,1.05473,0,17,17,13,1,Stimuli/testStimuliCube/6u_s_13_s.png,Stimuli/testStimuliCube/6u_d_13_s.png,1,1,,,,,,,,,s,3D
,,,,,,,19,Male,B,2020-05-20_15h38.33.450,Remembering_Displays,2020.1.2,Win32,60,9,1,0.56117,9,1,0.504435,0,18,18,6,1,Stimuli/testStimuliCube/6u_s_16.png,Stimuli/testStimuliCube/6u_s_16.png,0,9,,,,,,,,,c,3D
,,,,,,,19,Male,B,2020-05-20_15h38.33.450,Remembering_Displays,2020.1.2,Win32,60,9,1,0.556685,1,1,1.670075,0,19,19,20,1,Stimuli/testStimuliCube/6u_s_17_s.png,Stimuli/testStimuliCube/6u_s_17_s.png,0,9,,,,,,,,,s,3D
,,,,,,,19,Male,B,2020-05-20_15h38.33.450,Remembering_Displays,2020.1.2,Win32,60,9,0,1.07266,9,1,0.75452,0,20,20,23,1,Stimuli/testStimuliCube/6u_s_18_s.png,Stimuli/testStimuliCube/6u_d_18_s.png,1,1,,,,,,,,,s,3D
,,,,,,,19,Male,B,2020-05-20_15h38.33.450,Remembering_Displays,2020.1.2,Win32,60,1,1,0.640865,9,1,0.605625,0,21,21,21,1,Stimuli/testStimuliCube/6u_s_17_s.png,Stimuli/testStimuliCube/6u_d_17_s.png,1,1,,,,,,,,,s,3D
,,,,,,,19,Male,B,2020-05-20_15h38.33.450,Remembering_Displays,2020.1.2,Win32,60,1,1,0.753175,1,1,0.7741,0,22,22,1,1,Stimuli/testStimuliCube/6u_s_13.png,Stimuli/testStimuliCube/6u_d_13.png,1,1,,,,,,,,,c,3D
,,,,,,,19,Male,B,2020-05-20_15h38.33.450,Remembering_Displays,2020.1.2,Win32,60,1,1,0.620895,9,1,1.07119,0,23,23,15,1,Stimuli/testStimuliCube/6u_s_14_s.png,Stimuli/testStimuliCube/6u_d_14_s.png,1,1,,,,,,,,,s,3D
,,,,,,,19,Male,B,2020-05-20_15h38.33.450,Remembering_Displays,2020.1.2,Win32,60,,,,,,,,,,,,,,,,0,6,6,6,1,Stimuli/trialListCubes3.xlsx,Instructions/instr_19.png,Progress: 120 of 192 trials completed,,
,,,,,,,19,Male,B,2020-05-20_15h38.33.450,Remembering_Displays,2020.1.2,Win32,60,1,1,0.90367,9,1,0.500905,0,0,0,9,1,Stimuli/testStimuliSquare/6u_s_11_2D.png,Stimuli/testStimuliSquare/6u_d_11_2D.png,1,1,,,,,,,,,c,2D
,,,,,,,19,Male,B,2020-05-20_15h38.33.450,Remembering_Displays,2020.1.2,Win32,60,9,1,0.65895,9,1,0.94313,0,1,1,12,1,Stimuli/testStimuliSquare/6u_s_7_s_2D.png,Stimuli/testStimuliSquare/6u_s_7_s_2D.png,0,9,,,,,,,,,s,2D
,,,,,,,19,Male,B,2020-05-20_15h38.33.450,Remembering_Displays,2020.1.2,Win32,60,1,1,0.503865,1,1,0.40699,0,2,2,17,1,Stimuli/testStimuliSquare/6u_s_9_s_2D.png,Stimuli/testStimuliSquare/6u_d_9_s_2D.png,1,1,,,,,,,,,s,2D
,,,,,,,19,Male,B,2020-05-20_15h38.33.450,Remembering_Displays,2020.1.2,Win32,60,9,1,0.65168,9,1,0.466485,0,3,3,20,1,Stimuli/testStimuliSquare/6u_s_11_s_2D.png,Stimuli/testStimuliSquare/6u_s_11_s_2D.png,0,9,,,,,,,,,s,2D
,,,,,,,19,Male,B,2020-05-20_15h38.33.450,Remembering_Displays,2020.1.2,Win32,60,9,1,1.211915,1,1,0.78956,0,4,4,14,1,Stimuli/testStimuliSquare/6u_s_8_s_2D.png,Stimuli/testStimuliSquare/6u_s_8_s_2D.png,0,9,,,,,,,,,s,2D
,,,,,,,19,Male,B,2020-05-20_15h38.33.450,Remembering_Displays,2020.1.2,Win32,60,1,1,0.56921,1,1,0.472355,0,5,5,7,1,Stimuli/testStimuliSquare/6u_s_10_2D.png,Stimuli/testStimuliSquare/6u_d_10_2D.png,1,1,,,,,,,,,c,2D
,,,,,,,19,Male,B,2020-05-20_15h38.33.450,Remembering_Displays,2020.1.2,Win32,60,1,1,0.57242,1,1,0.76048,0,6,6,15,1,Stimuli/testStimuliSquare/6u_s_8_s_2D.png,Stimuli/testStimuliSquare/6u_d_8_s_2D.png,1,1,,,,,,,,,s,2D
,,,,,,,19,Male,B,2020-05-20_15h38.33.450,Remembering_Displays,2020.1.2,Win32,60,1,1,0.650285,9,1,0.751965,0,7,7,19,1,Stimuli/testStimuliSquare/6u_s_10_s_2D.png,Stimuli/testStimuliSquare/6u_d_10_s_2D.png,1,1,,,,,,,,,s,2D
,,,,,,,19,Male,B,2020-05-20_15h38.33.450,Remembering_Displays,2020.1.2,Win32,60,9,1,0.67139,9,1,1.18186,0,8,8,4,1,Stimuli/testStimuliSquare/6u_s_9_2D.png,Stimuli/testStimuliSquare/6u_s_9_2D.png,0,9,,,,,,,,,c,2D
,,,,,,,19,Male,B,2020-05-20_15h38.33.450,Remembering_Displays,2020.1.2,Win32,60,9,1,0.62192,9,1,0.357815,0,9,9,16,1,Stimuli/testStimuliSquare/6u_s_9_s_2D.png,Stimuli/testStimuliSquare/6u_s_9_s_2D.png,0,9,,,,,,,,,s,2D
,,,,,,,19,Male,B,2020-05-20_15h38.33.450,Remembering_Displays,2020.1.2,Win32,60,9,1,0.785275,1,1,1.413975,0,10,10,2,1,Stimuli/testStimuliSquare/6u_s_8_2D.png,Stimuli/testStimuliSquare/6u_s_8_2D.png,0,9,,,,,,,,,c,2D
,,,,,,,19,Male,B,2020-05-20_15h38.33.450,Remembering_Displays,2020.1.2,Win32,60,9,1,0.764935,1,1,0.40101,0,11,11,0,1,Stimuli/testStimuliSquare/6u_s_7_2D.png,Stimuli/testStimuliSquare/6u_s_7_2D.png,0,9,,,,,,,,,c,2D
,,,,,,,19,Male,B,2020-05-20_15h38.33.450,Remembering_Displays,2020.1.2,Win32,60,9,1,0.625575,1,1,1.105775,0,12,12,10,1,Stimuli/testStimuliSquare/6u_s_12_2D.png,Stimuli/testStimuliSquare/6u_s_12_2D.png,0,9,,,,,,,,,c,2D
,,,,,,,19,Male,B,2020-05-20_15h38.33.450,Remembering_Displays,2020.1.2,Win32,60,1,0,0.682565,1,1,0.709915,0,13,13,8,1,Stimuli/testStimuliSquare/6u_s_11_2D.png,Stimuli/testStimuliSquare/6u_s_11_2D.png,0,9,,,,,,,,,c,2D
,,,,,,,19,Male,B,2020-05-20_15h38.33.450,Remembering_Displays,2020.1.2,Win32,60,1,1,0.779155,9,1,1.14015,0,14,14,5,1,Stimuli/testStimuliSquare/6u_s_9_2D.png,Stimuli/testStimuliSquare/6u_d_9_2D.png,1,1,,,,,,,,,c,2D
,,,,,,,19,Male,B,2020-05-20_15h38.33.450,Remembering_Displays,2020.1.2,Win32,60,9,1,0.633265,1,1,0.25065,0,15,15,22,1,Stimuli/testStimuliSquare/6u_s_12_s_2D.png,Stimuli/testStimuliSquare/6u_s_12_s_2D.png,0,9,,,,,,,,,s,2D
,,,,,,,19,Male,B,2020-05-20_15h38.33.450,Remembering_Displays,2020.1.2,Win32,60,9,1,1.11367,9,0,0.926425,0,16,16,18,1,Stimuli/testStimuliSquare/6u_s_10_s_2D.png,Stimuli/testStimuliSquare/6u_s_10_s_2D.png,0,9,,,,,,,,,s,2D
,,,,,,,19,Male,B,2020-05-20_15h38.33.450,Remembering_Displays,2020.1.2,Win32,60,9,0,0.70062,1,1,0.743995,0,17,17,11,1,Stimuli/testStimuliSquare/6u_s_12_2D.png,Stimuli/testStimuliSquare/6u_d_12_2D.png,1,1,,,,,,,,,c,2D
,,,,,,,19,Male,B,2020-05-20_15h38.33.450,Remembering_Displays,2020.1.2,Win32,60,9,1,0.922905,1,1,0.72378,0,18,18,6,1,Stimuli/testStimuliSquare/6u_s_10_2D.png,Stimuli/testStimuliSquare/6u_s_10_2D.png,0,9,,,,,,,,,c,2D
,,,,,,,19,Male,B,2020-05-20_15h38.33.450,Remembering_Displays,2020.1.2,Win32,60,1,1,0.74041,1,1,0.74782,0,19,19,1,1,Stimuli/testStimuliSquare/6u_s_7_2D.png,Stimuli/testStimuliSquare/6u_d_7_2D.png,1,1,,,,,,,,,c,2D
,,,,,,,19,Male,B,2020-05-20_15h38.33.450,Remembering_Displays,2020.1.2,Win32,60,1,1,0.73827,1,1,0.740775,0,20,20,13,1,Stimuli/testStimuliSquare/6u_s_7_s_2D.png,Stimuli/testStimuliSquare/6u_d_7_s_2D.png,1,1,,,,,,,,,s,2D
,,,,,,,19,Male,B,2020-05-20_15h38.33.450,Remembering_Displays,2020.1.2,Win32,60,9,0,0.841765,9,1,1.294765,0,21,21,21,1,Stimuli/testStimuliSquare/6u_s_11_s_2D.png,Stimuli/testStimuliSquare/6u_d_11_s_2D.png,1,1,,,,,,,,,s,2D
,,,,,,,19,Male,B,2020-05-20_15h38.33.450,Remembering_Displays,2020.1.2,Win32,60,1,1,0.855835,1,1,0.76097,0,22,22,3,1,Stimuli/testStimuliSquare/6u_s_8_2D.png,Stimuli/testStimuliSquare/6u_d_8_2D.png,1,1,,,,,,,,,c,2D
,,,,,,,19,Male,B,2020-05-20_15h38.33.450,Remembering_Displays,2020.1.2,Win32,60,9,0,1.00196,1,1,0.536255,0,23,23,23,1,Stimuli/testStimuliSquare/6u_s_12_s_2D.png,Stimuli/testStimuliSquare/6u_d_12_s_2D.png,1,1,,,,,,,,,s,2D
,,,,,,,19,Male,B,2020-05-20_15h38.33.450,Remembering_Displays,2020.1.2,Win32,60,,,,,,,,,,,,,,,,0,7,7,7,1,Stimuli/trialListSquares2.xlsx,Instructions/instr_18.png,Progress: 144 of 192 trials completed,,
,,,,,,,19,Male,B,2020-05-20_15h38.33.450,Remembering_Displays,2020.1.2,Win32,60,9,1,0.824065,1,1,0.38285,0,0,0,20,1,Stimuli/testStimuliCube/6u_s_23_s.png,Stimuli/testStimuliCube/6u_s_23_s.png,0,9,,,,,,,,,s,3D
,,,,,,,19,Male,B,2020-05-20_15h38.33.450,Remembering_Displays,2020.1.2,Win32,60,1,1,0.6768,9,1,0.45234,0,1,1,21,1,Stimuli/testStimuliCube/6u_s_23_s.png,Stimuli/testStimuliCube/6u_d_23_s.png,1,1,,,,,,,,,s,3D
,,,,,,,19,Male,B,2020-05-20_15h38.33.450,Remembering_Displays,2020.1.2,Win32,60,1,1,0.621865,9,1,0.55262,0,2,2,9,1,Stimuli/testStimuliCube/6u_s_23.png,Stimuli/testStimuliCube/6u_d_23.png,1,1,,,,,,,,,c,3D
,,,,,,,19,Male,B,2020-05-20_15h38.33.450,Remembering_Displays,2020.1.2,Win32,60,9,1,0.7591,1,1,0.48026,0,3,3,22,1,Stimuli/testStimuliCube/6u_s_24_s.png,Stimuli/testStimuliCube/6u_s_24_s.png,0,9,,,,,,,,,s,3D
,,,,,,,19,Male,B,2020-05-20_15h38.33.450,Remembering_Displays,2020.1.2,Win32,60,9,0,0.86501,1,1,0.56387,0,4,4,13,1,Stimuli/testStimuliCube/6u_s_19_s.png,Stimuli/testStimuliCube/6u_d_19_s.png,1,1,,,,,,,,,s,3D
,,,,,,,19,Male,B,2020-05-20_15h38.33.450,Remembering_Displays,2020.1.2,Win32,60,9,0,1.13862,9,0,0.8017,0,5,5,11,1,Stimuli/testStimuliCube/6u_s_24.png,Stimuli/testStimuliCube/6u_d_24.png,1,1,,,,,,,,,c,3D
,,,,,,,19,Male,B,2020-05-20_15h38.33.450,Remembering_Displays,2020.1.2,Win32,60,9,1,0.80638,9,1,0.544185,0,6,6,4,1,Stimuli/testStimuliCube/6u_s_21.png,Stimuli/testStimuliCube/6u_s_21.png,0,9,,,,,,,,,c,3D
,,,,,,,19,Male,B,2020-05-20_15h38.33.450,Remembering_Displays,2020.1.2,Win32,60,1,1,0.550735,1,1,0.556405,0,7,7,23,1,Stimuli/testStimuliCube/6u_s_24_s.png,Stimuli/testStimuliCube/6u_d_24_s.png,1,1,,,,,,,,,s,3D
,,,,,,,19,Male,B,2020-05-20_15h38.33.450,Remembering_Displays,2020.1.2,Win32,60,9,1,0.73148,9,1,0.84956,0,8,8,2,1,Stimuli/testStimuliCube/6u_s_20.png,Stimuli/testStimuliCube/6u_s_20.png,0,9,,,,,,,,,c,3D
,,,,,,,19,Male,B,2020-05-20_15h38.33.450,Remembering_Displays,2020.1.2,Win32,60,1,1,0.558225,9,1,0.636035,0,9,9,15,1,Stimuli/testStimuliCube/6u_s_20_s.png,Stimuli/testStimuliCube/6u_d_20_s.png,1,1,,,,,,,,,s,3D
,,,,,,,19,Male,B,2020-05-20_15h38.33.450,Remembering_Displays,2020.1.2,Win32,60,9,1,0.575135,1,1,0.32421,0,10,10,6,1,Stimuli/testStimuliCube/6u_s_22.png,Stimuli/testStimuliCube/6u_s_22.png,0,9,,,,,,,,,c,3D
,,,,,,,19,Male,B,2020-05-20_15h38.33.450,Remembering_Displays,2020.1.2,Win32,60,1,1,0.621665,9,1,0.57027,0,11,11,1,1,Stimuli/testStimuliCube/6u_s_19.png,Stimuli/testStimuliCube/6u_d_19.png,1,1,,,,,,,,,c,3D
,,,,,,,19,Male,B,2020-05-20_15h38.33.450,Remembering_Displays,2020.1.2,Win32,60,9,1,0.81375,1,1,0.510355,0,12,12,14,1,Stimuli/testStimuliCube/6u_s_20_s.png,Stimuli/testStimuliCube/6u_s_20_s.png,0,9,,,,,,,,,s,3D
,,,,,,,19,Male,B,2020-05-20_15h38.33.450,Remembering_Displays,2020.1.2,Win32,60,1,1,0.891725,9,1,0.536185,0,13,13,5,1,Stimuli/testStimuliCube/6u_s_21.png,Stimuli/testStimuliCube/6u_d_21.png,1,1,,,,,,,,,c,3D
,,,,,,,19,Male,B,2020-05-20_15h38.33.450,Remembering_Displays,2020.1.2,Win32,60,9,1,0.646945,1,1,0.783715,0,14,14,10,1,Stimuli/testStimuliCube/6u_s_24.png,Stimuli/testStimuliCube/6u_s_24.png,0,9,,,,,,,,,c,3D
,,,,,,,19,Male,B,2020-05-20_15h38.33.450,Remembering_Displays,2020.1.2,Win32,60,1,1,0.56233,9,1,0.829135,0,15,15,17,1,Stimuli/testStimuliCube/6u_s_21_s.png,Stimuli/testStimuliCube/6u_d_21_s.png,1,1,,,,,,,,,s,3D
,,,,,,,19,Male,B,2020-05-20_15h38.33.450,Remembering_Displays,2020.1.2,Win32,60,9,1,0.562815,9,1,0.885495,0,16,16,0,1,Stimuli/testStimuliCube/6u_s_19.png,Stimuli/testStimuliCube/6u_s_19.png,0,9,,,,,,,,,c,3D
,,,,,,,19,Male,B,2020-05-20_15h38.33.450,Remembering_Displays,2020.1.2,Win32,60,1,1,0.5266,1,1,0.90523,0,17,17,3,1,Stimuli/testStimuliCube/6u_s_20.png,Stimuli/testStimuliCube/6u_d_20.png,1,1,,,,,,,,,c,3D
,,,,,,,19,Male,B,2020-05-20_15h38.33.450,Remembering_Displays,2020.1.2,Win32,60,1,1,0.644515,1,1,0.91292,0,18,18,19,1,Stimuli/testStimuliCube/6u_s_22_s.png,Stimuli/testStimuliCube/6u_d_22_s.png,1,1,,,,,,,,,s,3D
,,,,,,,19,Male,B,2020-05-20_15h38.33.450,Remembering_Displays,2020.1.2,Win32,60,1,1,0.624235,9,1,2.274385,0,19,19,7,1,Stimuli/testStimuliCube/6u_s_22.png,Stimuli/testStimuliCube/6u_d_22.png,1,1,,,,,,,,,c,3D
,,,,,,,19,Male,B,2020-05-20_15h38.33.450,Remembering_Displays,2020.1.2,Win32,60,9,1,0.97541,9,1,0.860955,0,20,20,16,1,Stimuli/testStimuliCube/6u_s_21_s.png,Stimuli/testStimuliCube/6u_s_21_s.png,0,9,,,,,,,,,s,3D
,,,,,,,19,Male,B,2020-05-20_15h38.33.450,Remembering_Displays,2020.1.2,Win32,60,9,1,0.796095,1,1,0.334545,0,21,21,12,1,Stimuli/testStimuliCube/6u_s_19_s.png,Stimuli/testStimuliCube/6u_s_19_s.png,0,9,,,,,,,,,s,3D
,,,,,,,19,Male,B,2020-05-20_15h38.33.450,Remembering_Displays,2020.1.2,Win32,60,1,0,1.231665,1,1,0.59412,0,22,22,18,1,Stimuli/testStimuliCube/6u_s_22_s.png,Stimuli/testStimuliCube/6u_s_22_s.png,0,9,,,,,,,,,s,3D
,,,,,,,19,Male,B,2020-05-20_15h38.33.450,Remembering_Displays,2020.1.2,Win32,60,9,1,0.75735,1,1,0.404075,0,23,23,8,1,Stimuli/testStimuliCube/6u_s_23.png,Stimuli/testStimuliCube/6u_s_23.png,0,9,,,,,,,,,c,3D
,,,,,,,19,Male,B,2020-05-20_15h38.33.450,Remembering_Displays,2020.1.2,Win32,60,,,,,,,,,,,,,,,,0,8,8,8,1,Stimuli/trialListCubes4.xlsx,Instructions/instr_19.png,Progress: 168 of 192 trials completed,,
,,,,,,,19,Male,B,2020-05-20_15h38.33.450,Remembering_Displays,2020.1.2,Win32,60,1,1,0.65012,9,1,0.389685,0,0,0,15,1,Stimuli/testStimuliSquare/6u_s_2_s_2D.png,Stimuli/testStimuliSquare/6u_d_2_s_2D.png,1,1,,,,,,,,,s,2D
,,,,,,,19,Male,B,2020-05-20_15h38.33.450,Remembering_Displays,2020.1.2,Win32,60,9,1,0.633795,1,1,0.4181,0,1,1,14,1,Stimuli/testStimuliSquare/6u_s_2_s_2D.png,Stimuli/testStimuliSquare/6u_s_2_s_2D.png,0,9,,,,,,,,,s,2D
,,,,,,,19,Male,B,2020-05-20_15h38.33.450,Remembering_Displays,2020.1.2,Win32,60,9,1,0.744615,1,1,0.41779,0,2,2,18,1,Stimuli/testStimuliSquare/6u_s_4_s_2D.png,Stimuli/testStimuliSquare/6u_s_4_s_2D.png,0,9,,,,,,,,,s,2D
,,,,,,,19,Male,B,2020-05-20_15h38.33.450,Remembering_Displays,2020.1.2,Win32,60,1,1,0.609125,1,1,0.631245,0,3,3,19,1,Stimuli/testStimuliSquare/6u_s_4_s_2D.png,Stimuli/testStimuliSquare/6u_d_4_s_2D.png,1,1,,,,,,,,,s,2D
,,,,,,,19,Male,B,2020-05-20_15h38.33.450,Remembering_Displays,2020.1.2,Win32,60,9,1,1.18624,9,1,1.136265,0,4,4,22,1,Stimuli/testStimuliSquare/6u_s_6_s_2D.png,Stimuli/testStimuliSquare/6u_s_6_s_2D.png,0,9,,,,,,,,,s,2D
,,,,,,,19,Male,B,2020-05-20_15h38.33.450,Remembering_Displays,2020.1.2,Win32,60,1,1,0.6272,1,1,0.50811,0,5,5,9,1,Stimuli/testStimuliSquare/6u_s_5_2D.png,Stimuli/testStimuliSquare/6u_d_5_2D.png,1,1,,,,,,,,,c,2D
,,,,,,,19,Male,B,2020-05-20_15h38.33.450,Remembering_Displays,2020.1.2,Win32,60,9,1,0.65016,1,1,0.705265,0,6,6,10,1,Stimuli/testStimuliSquare/6u_s_6_2D.png,Stimuli/testStimuliSquare/6u_s_6_2D.png,0,9,,,,,,,,,c,2D
,,,,,,,19,Male,B,2020-05-20_15h38.33.450,Remembering_Displays,2020.1.2,Win32,60,1,1,0.63742,1,1,0.53073,0,7,7,21,1,Stimuli/testStimuliSquare/6u_s_5_s_2D.png,Stimuli/testStimuliSquare/6u_d_5_s_2D.png,1,1,,,,,,,,,s,2D
,,,,,,,19,Male,B,2020-05-20_15h38.33.450,Remembering_Displays,2020.1.2,Win32,60,1,1,0.7348,9,1,0.38272,0,8,8,11,1,Stimuli/testStimuliSquare/6u_s_6_2D.png,Stimuli/testStimuliSquare/6u_d_6_2D.png,1,1,,,,,,,,,c,2D
,,,,,,,19,Male,B,2020-05-20_15h38.33.450,Remembering_Displays,2020.1.2,Win32,60,1,0,0.737175,9,1,1.00144,0,9,9,8,1,Stimuli/testStimuliSquare/6u_s_5_2D.png,Stimuli/testStimuliSquare/6u_s_5_2D.png,0,9,,,,,,,,,c,2D
,,,,,,,19,Male,B,2020-05-20_15h38.33.450,Remembering_Displays,2020.1.2,Win32,60,1,1,0.641015,1,1,0.82613,0,10,10,7,1,Stimuli/testStimuliSquare/6u_s_4_2D.png,Stimuli/testStimuliSquare/6u_d_4_2D.png,1,1,,,,,,,,,c,2D
,,,,,,,19,Male,B,2020-05-20_15h38.33.450,Remembering_Displays,2020.1.2,Win32,60,9,1,0.62753,1,1,0.391695,0,11,11,12,1,Stimuli/testStimuliSquare/6u_s_1_s_2D.png,Stimuli/testStimuliSquare/6u_s_1_s_2D.png,0,9,,,,,,,,,s,2D
,,,,,,,19,Male,B,2020-05-20_15h38.33.450,Remembering_Displays,2020.1.2,Win32,60,1,1,0.63347,9,1,0.52327,0,12,12,13,1,Stimuli/testStimuliSquare/6u_s_1_s_2D.png,Stimuli/testStimuliSquare/6u_d_1_s_2D.png,1,1,,,,,,,,,s,2D
,,,,,,,19,Male,B,2020-05-20_15h38.33.450,Remembering_Displays,2020.1.2,Win32,60,9,1,0.569695,9,1,0.961195,0,13,13,2,1,Stimuli/testStimuliSquare/6u_s_2_2D.png,Stimuli/testStimuliSquare/6u_s_2_2D.png,0,9,,,,,,,,,c,2D
,,,,,,,19,Male,B,2020-05-20_15h38.33.450,Remembering_Displays,2020.1.2,Win32,60,9,1,0.556425,9,1,0.390135,0,14,14,4,1,Stimuli/testStimuliSquare/6u_s_3_2D.png,Stimuli/testStimuliSquare/6u_s_3_2D.png,0,9,,,,,,,,,c,2D
,,,,,,,19,Male,B,2020-05-20_15h38.33.450,Remembering_Displays,2020.1.2,Win32,60,1,1,0.73165,9,1,0.514565,0,15,15,23,1,Stimuli/testStimuliSquare/6u_s_6_s_2D.png,Stimuli/testStimuliSquare/6u_d_6_s_2D.png,1,1,,,,,,,,,s,2D
,,,,,,,19,Male,B,2020-05-20_15h38.33.450,Remembering_Displays,2020.1.2,Win32,60,1,1,0.70836,9,1,0.51577,0,16,16,3,1,Stimuli/testStimuliSquare/6u_s_2_2D.png,Stimuli/testStimuliSquare/6u_d_2_2D.png,1,1,,,,,,,,,c,2D
,,,,,,,19,Male,B,2020-05-20_15h38.33.450,Remembering_Displays,2020.1.2,Win32,60,9,1,0.697655,1,1,0.57805,0,17,17,16,1,Stimuli/testStimuliSquare/6u_s_3_s_2D.png,Stimuli/testStimuliSquare/6u_s_3_s_2D.png,0,9,,,,,,,,,s,2D
,,,,,,,19,Male,B,2020-05-20_15h38.33.450,Remembering_Displays,2020.1.2,Win32,60,1,1,0.62661,1,1,0.75864,0,18,18,17,1,Stimuli/testStimuliSquare/6u_s_3_s_2D.png,Stimuli/testStimuliSquare/6u_d_3_s_2D.png,1,1,,,,,,,,,s,2D
,,,,,,,19,Male,B,2020-05-20_15h38.33.450,Remembering_Displays,2020.1.2,Win32,60,9,1,0.59477,1,1,0.48734,0,19,19,0,1,Stimuli/testStimuliSquare/6u_s_1_2D.png,Stimuli/testStimuliSquare/6u_s_1_2D.png,0,9,,,,,,,,,c,2D
,,,,,,,19,Male,B,2020-05-20_15h38.33.450,Remembering_Displays,2020.1.2,Win32,60,9,1,0.5862,9,1,0.493855,0,20,20,20,1,Stimuli/testStimuliSquare/6u_s_5_s_2D.png,Stimuli/testStimuliSquare/6u_s_5_s_2D.png,0,9,,,,,,,,,s,2D
,,,,,,,19,Male,B,2020-05-20_15h38.33.450,Remembering_Displays,2020.1.2,Win32,60,9,1,0.891215,1,1,0.453635,0,21,21,6,1,Stimuli/testStimuliSquare/6u_s_4_2D.png,Stimuli/testStimuliSquare/6u_s_4_2D.png,0,9,,,,,,,,,c,2D
,,,,,,,19,Male,B,2020-05-20_15h38.33.450,Remembering_Displays,2020.1.2,Win32,60,1,1,0.602535,1,1,0.44565,0,22,22,5,1,Stimuli/testStimuliSquare/6u_s_3_2D.png,Stimuli/testStimuliSquare/6u_d_3_2D.png,1,1,,,,,,,,,c,2D
,,,,,,,19,Male,B,2020-05-20_15h38.33.450,Remembering_Displays,2020.1.2,Win32,60,1,1,0.58241,9,1,0.505335,0,23,23,1,1,Stimuli/testStimuliSquare/6u_s_1_2D.png,Stimuli/testStimuliSquare/6u_d_1_2D.png,1,1,,,,,,,,,c,2D