instr_Loop.thisRepN,instr_Loop.thisTrialN,instr_Loop.thisN,instr_Loop.thisIndex,instr_Loop.ran,instructionImage,time,age,sex (female/male),order,date,expName,psychopyVersion,OS,frameRate,struc_judge_respond.keys,struc_judge_respond.corr,struc_judge_respond.rt,dual_respond.keys,dual_respond.corr,dual_respond.rt,trials.thisRepN,trials.thisTrialN,trials.thisN,trials.thisIndex,trials.ran,stim1,stim2,isAnyChange,corrAns,selectBlock.thisRepN,selectBlock.thisTrialN,selectBlock.thisN,selectBlock.thisIndex,selectBlock.ran,condsFile,condsImage,remaining,connected,dimensionality
0,0,0,0,1,Instructions/consent.png,3,20,female,B,2020-05-21_06h53.11.279,Remembering_Displays,2020.1.2,MacIntel,60,,,,,,,,,,,,,,,,,,,,,,,,,
0,1,1,1,1,Instructions/instr_1.png,5,20,female,B,2020-05-21_06h53.11.279,Remembering_Displays,2020.1.2,MacIntel,60,,,,,,,,,,,,,,,,,,,,,,,,,
0,2,2,2,1,Instructions/instr_2.png,3,20,female,B,2020-05-21_06h53.11.279,Remembering_Displays,2020.1.2,MacIntel,60,,,,,,,,,,,,,,,,,,,,,,,,,
0,3,3,3,1,Instructions/instr_3.png,5,20,female,B,2020-05-21_06h53.11.279,Remembering_Displays,2020.1.2,MacIntel,60,,,,,,,,,,,,,,,,,,,,,,,,,
0,4,4,4,1,Instructions/instr_4.png,1,20,female,B,2020-05-21_06h53.11.279,Remembering_Displays,2020.1.2,MacIntel,60,,,,,,,,,,,,,,,,,,,,,,,,,
0,5,5,5,1,Instructions/instr_5.png,1,20,female,B,2020-05-21_06h53.11.279,Remembering_Displays,2020.1.2,MacIntel,60,,,,,,,,,,,,,,,,,,,,,,,,,
0,6,6,6,1,Instructions/instr_6.png,1,20,female,B,2020-05-21_06h53.11.279,Remembering_Displays,2020.1.2,MacIntel,60,,,,,,,,,,,,,,,,,,,,,,,,,
0,7,7,7,1,Instructions/instr_7.png,1,20,female,B,2020-05-21_06h53.11.279,Remembering_Displays,2020.1.2,MacIntel,60,,,,,,,,,,,,,,,,,,,,,,,,,
0,8,8,8,1,Instructions/instr_8.png,3,20,female,B,2020-05-21_06h53.11.279,Remembering_Displays,2020.1.2,MacIntel,60,,,,,,,,,,,,,,,,,,,,,,,,,
0,9,9,9,1,Instructions/instr_9.png,3,20,female,B,2020-05-21_06h53.11.279,Remembering_Displays,2020.1.2,MacIntel,60,,,,,,,,,,,,,,,,,,,,,,,,,
0,10,10,10,1,Instructions/instr_10.png,3,20,female,B,2020-05-21_06h53.11.279,Remembering_Displays,2020.1.2,MacIntel,60,,,,,,,,,,,,,,,,,,,,,,,,,
0,11,11,11,1,Instructions/instr_11.png,3,20,female,B,2020-05-21_06h53.11.279,Remembering_Displays,2020.1.2,MacIntel,60,,,,,,,,,,,,,,,,,,,,,,,,,
0,12,12,12,1,Instructions/instr_12.png,3,20,female,B,2020-05-21_06h53.11.279,Remembering_Displays,2020.1.2,MacIntel,60,,,,,,,,,,,,,,,,,,,,,,,,,
0,13,13,13,1,Instructions/instr_13.png,3,20,female,B,2020-05-21_06h53.11.279,Remembering_Displays,2020.1.2,MacIntel,60,,,,,,,,,,,,,,,,,,,,,,,,,
0,14,14,14,1,Instructions/instr_14.png,3,20,female,B,2020-05-21_06h53.11.279,Remembering_Displays,2020.1.2,MacIntel,60,,,,,,,,,,,,,,,,,,,,,,,,,
0,15,15,15,1,Instructions/instr_15.png,3,20,female,B,2020-05-21_06h53.11.279,Remembering_Displays,2020.1.2,MacIntel,60,,,,,,,,,,,,,,,,,,,,,,,,,
0,16,16,16,1,Instructions/instr_16.png,5,20,female,B,2020-05-21_06h53.11.279,Remembering_Displays,2020.1.2,MacIntel,60,,,,,,,,,,,,,,,,,,,,,,,,,
,,,,,,,20,female,B,2020-05-21_06h53.11.279,Remembering_Displays,2020.1.2,MacIntel,60,9,1,0.77949,1,1,0.885405,0,0,0,2,1,Stimuli/practiceStimuliCube/practice3_s.png,Stimuli/practiceStimuliCube/practice3_s.png,0,9,,,,,,,,,,
,,,,,,,20,female,B,2020-05-21_06h53.11.279,Remembering_Displays,2020.1.2,MacIntel,60,9,1,0.677335,9,0,1.099985,0,1,1,7,1,Stimuli/practiceStimuliCube/practice4_s.png,Stimuli/practiceStimuliCube/practice4_s.png,0,9,,,,,,,,,,
,,,,,,,20,female,B,2020-05-21_06h53.11.279,Remembering_Displays,2020.1.2,MacIntel,60,9,1,0.764215,1,1,0.68581,0,2,2,5,1,Stimuli/practiceStimuliCube/practice2_s.png,Stimuli/practiceStimuliCube/practice2_s.png,0,9,,,,,,,,,,
,,,,,,,20,female,B,2020-05-21_06h53.11.279,Remembering_Displays,2020.1.2,MacIntel,60,9,0,0.82342,1,1,1.768165,0,3,3,1,1,Stimuli/practiceStimuliCube/practice2_s.png,Stimuli/practiceStimuliCube/practice2_d.png,1,1,,,,,,,,,,
,,,,,,,20,female,B,2020-05-21_06h53.11.279,Remembering_Displays,2020.1.2,MacIntel,60,1,1,1.23277,1,1,1.202165,0,4,4,6,1,Stimuli/practiceStimuliCube/practice3_s.png,Stimuli/practiceStimuliCube/practice3_d.png,1,1,,,,,,,,,,
,,,,,,,20,female,B,2020-05-21_06h53.11.279,Remembering_Displays,2020.1.2,MacIntel,60,9,1,0.982135,1,1,0.751925,0,5,5,0,1,Stimuli/practiceStimuliCube/practice1_s.png,Stimuli/practiceStimuliCube/practice1_s.png,0,9,,,,,,,,,,
,,,,,,,20,female,B,2020-05-21_06h53.11.279,Remembering_Displays,2020.1.2,MacIntel,60,1,1,0.89464,1,1,0.835485,0,6,6,4,1,Stimuli/practiceStimuliCube/practice1_s.png,Stimuli/practiceStimuliCube/practice1_d.png,1,1,,,,,,,,,,
,,,,,,,20,female,B,2020-05-21_06h53.11.279,Remembering_Displays,2020.1.2,MacIntel,60,1,1,0.850595,9,1,1.685555,0,7,7,3,1,Stimuli/practiceStimuliCube/practice4_s.png,Stimuli/practiceStimuliCube/practice4_d.png,1,1,,,,,,,,,,
,,,,,,,20,female,B,2020-05-21_06h53.11.279,Remembering_Displays,2020.1.2,MacIntel,60,,,,,,,,,,,,,,,,0,0,0,0,1,Stimuli/practiceListCubes.xlsx,Instructions/instr_practice_B.png,Practice trials completed,,
,,,,,,,20,female,B,2020-05-21_06h53.11.279,Remembering_Displays,2020.1.2,MacIntel,60,9,1,0.574525,1,1,0.940155,0,0,0,22,1,Stimuli/testStimuliCube/6u_s_6_s.png,Stimuli/testStimuliCube/6u_s_6_s.png,0,9,,,,,,,,,s,3D
,,,,,,,20,female,B,2020-05-21_06h53.11.279,Remembering_Displays,2020.1.2,MacIntel,60,1,1,0.733865,9,1,0.852335,0,1,1,5,1,Stimuli/testStimuliCube/6u_s_3.png,Stimuli/testStimuliCube/6u_d_3.png,1,1,,,,,,,,,c,3D
,,,,,,,20,female,B,2020-05-21_06h53.11.279,Remembering_Displays,2020.1.2,MacIntel,60,9,0,0.846085,1,1,0.93605,0,2,2,7,1,Stimuli/testStimuliCube/6u_s_4.png,Stimuli/testStimuliCube/6u_d_4.png,1,1,,,,,,,,,c,3D
,,,,,,,20,female,B,2020-05-21_06h53.11.279,Remembering_Displays,2020.1.2,MacIntel,60,9,1,1.080945,1,1,0.73352,0,3,3,20,1,Stimuli/testStimuliCube/6u_s_5_s.png,Stimuli/testStimuliCube/6u_s_5_s.png,0,9,,,,,,,,,s,3D
,,,,,,,20,female,B,2020-05-21_06h53.11.279,Remembering_Displays,2020.1.2,MacIntel,60,9,1,0.633865,1,1,0.551185,0,4,4,8,1,Stimuli/testStimuliCube/6u_s_5.png,Stimuli/testStimuliCube/6u_s_5.png,0,9,,,,,,,,,c,3D
,,,,,,,20,female,B,2020-05-21_06h53.11.279,Remembering_Displays,2020.1.2,MacIntel,60,1,1,0.62374,1,1,1.57891,0,5,5,11,1,Stimuli/testStimuliCube/6u_s_6.png,Stimuli/testStimuliCube/6u_d_6.png,1,1,,,,,,,,,c,3D
,,,,,,,20,female,B,2020-05-21_06h53.11.279,Remembering_Displays,2020.1.2,MacIntel,60,1,1,0.668585,9,1,0.78403,0,6,6,13,1,Stimuli/testStimuliCube/6u_s_1_s.png,Stimuli/testStimuliCube/6u_d_1_s.png,1,1,,,,,,,,,s,3D
,,,,,,,20,female,B,2020-05-21_06h53.11.279,Remembering_Displays,2020.1.2,MacIntel,60,9,1,0.52364,9,1,1.43728,0,7,7,18,1,Stimuli/testStimuliCube/6u_s_4_s.png,Stimuli/testStimuliCube/6u_s_4_s.png,0,9,,,,,,,,,s,3D
,,,,,,,20,female,B,2020-05-21_06h53.11.279,Remembering_Displays,2020.1.2,MacIntel,60,9,1,0.75541,9,1,0.85237,0,8,8,4,1,Stimuli/testStimuliCube/6u_s_3.png,Stimuli/testStimuliCube/6u_s_3.png,0,9,,,,,,,,,c,3D
,,,,,,,20,female,B,2020-05-21_06h53.11.279,Remembering_Displays,2020.1.2,MacIntel,60,1,1,0.543075,1,1,0.584885,0,9,9,1,1,Stimuli/testStimuliCube/6u_s_1.png,Stimuli/testStimuliCube/6u_d_1.png,1,1,,,,,,,,,c,3D
,,,,,,,20,female,B,2020-05-21_06h53.11.279,Remembering_Displays,2020.1.2,MacIntel,60,9,1,0.61375,9,1,0.83848,0,10,10,6,1,Stimuli/testStimuliCube/6u_s_4.png,Stimuli/testStimuliCube/6u_s_4.png,0,9,,,,,,,,,c,3D
,,,,,,,20,female,B,2020-05-21_06h53.11.279,Remembering_Displays,2020.1.2,MacIntel,60,9,1,0.568635,1,1,0.417145,0,11,11,2,1,Stimuli/testStimuliCube/6u_s_2.png,Stimuli/testStimuliCube/6u_s_2.png,0,9,,,,,,,,,c,3D
,,,,,,,20,female,B,2020-05-21_06h53.11.279,Remembering_Displays,2020.1.2,MacIntel,60,1,1,0.78262,1,1,0.65115,0,12,12,23,1,Stimuli/testStimuliCube/6u_s_6_s.png,Stimuli/testStimuliCube/6u_d_6_s.png,1,1,,,,,,,,,s,3D
,,,,,,,20,female,B,2020-05-21_06h53.11.279,Remembering_Displays,2020.1.2,MacIntel,60,1,1,0.609215,1,1,0.43347,0,13,13,3,1,Stimuli/testStimuliCube/6u_s_2.png,Stimuli/testStimuliCube/6u_d_2.png,1,1,,,,,,,,,c,3D
,,,,,,,20,female,B,2020-05-21_06h53.11.279,Remembering_Displays,2020.1.2,MacIntel,60,9,0,0.61067,1,1,0.769645,0,14,14,21,1,Stimuli/testStimuliCube/6u_s_5_s.png,Stimuli/testStimuliCube/6u_d_5_s.png,1,1,,,,,,,,,s,3D
,,,,,,,20,female,B,2020-05-21_06h53.11.279,Remembering_Displays,2020.1.2,MacIntel,60,1,1,0.692195,9,1,1.28569,0,15,15,15,1,Stimuli/testStimuliCube/6u_s_2_s.png,Stimuli/testStimuliCube/6u_d_2_s.png,1,1,,,,,,,,,s,3D
,,,,,,,20,female,B,2020-05-21_06h53.11.279,Remembering_Displays,2020.1.2,MacIntel,60,9,1,0.50313,9,1,0.900635,0,16,16,0,1,Stimuli/testStimuliCube/6u_s_1.png,Stimuli/testStimuliCube/6u_s_1.png,0,9,,,,,,,,,c,3D
,,,,,,,20,female,B,2020-05-21_06h53.11.279,Remembering_Displays,2020.1.2,MacIntel,60,9,1,0.492845,1,1,0.468295,0,17,17,16,1,Stimuli/testStimuliCube/6u_s_3_s.png,Stimuli/testStimuliCube/6u_s_3_s.png,0,9,,,,,,,,,s,3D
,,,,,,,20,female,B,2020-05-21_06h53.11.279,Remembering_Displays,2020.1.2,MacIntel,60,1,1,0.491205,1,1,0.43527,0,18,18,17,1,Stimuli/testStimuliCube/6u_s_3_s.png,Stimuli/testStimuliCube/6u_d_3_s.png,1,1,,,,,,,,,s,3D
,,,,,,,20,female,B,2020-05-21_06h53.11.279,Remembering_Displays,2020.1.2,MacIntel,60,9,0,0.61264,1,1,0.59575,0,19,19,9,1,Stimuli/testStimuliCube/6u_s_5.png,Stimuli/testStimuliCube/6u_d_5.png,1,1,,,,,,,,,c,3D
,,,,,,,20,female,B,2020-05-21_06h53.11.279,Remembering_Displays,2020.1.2,MacIntel,60,9,1,0.865505,9,1,0.51775,0,20,20,12,1,Stimuli/testStimuliCube/6u_s_1_s.png,Stimuli/testStimuliCube/6u_s_1_s.png,0,9,,,,,,,,,s,3D
,,,,,,,20,female,B,2020-05-21_06h53.11.279,Remembering_Displays,2020.1.2,MacIntel,60,9,1,0.611075,9,1,0.95075,0,21,21,14,1,Stimuli/testStimuliCube/6u_s_2_s.png,Stimuli/testStimuliCube/6u_s_2_s.png,0,9,,,,,,,,,s,3D
,,,,,,,20,female,B,2020-05-21_06h53.11.279,Remembering_Displays,2020.1.2,MacIntel,60,1,1,0.6195,9,1,0.569885,0,22,22,19,1,Stimuli/testStimuliCube/6u_s_4_s.png,Stimuli/testStimuliCube/6u_d_4_s.png,1,1,,,,,,,,,s,3D
,,,,,,,20,female,B,2020-05-21_06h53.11.279,Remembering_Displays,2020.1.2,MacIntel,60,9,1,0.600465,9,1,0.65167,0,23,23,10,1,Stimuli/testStimuliCube/6u_s_6.png,Stimuli/testStimuliCube/6u_s_6.png,0,9,,,,,,,,,c,3D
,,,,,,,20,female,B,2020-05-21_06h53.11.279,Remembering_Displays,2020.1.2,MacIntel,60,,,,,,,,,,,,,,,,0,1,1,1,1,Stimuli/trialListCubes1.xlsx,Instructions/instr_19.png,Progress: 24 of 192 trials completed,,
,,,,,,,20,female,B,2020-05-21_06h53.11.279,Remembering_Displays,2020.1.2,MacIntel,60,9,1,0.613995,1,1,0.60362,0,0,0,0,1,Stimuli/practiceStimuliSquare/practice1_s.png,Stimuli/practiceStimuliSquare/practice1_s.png,0,9,,,,,,,,,,
,,,,,,,20,female,B,2020-05-21_06h53.11.279,Remembering_Displays,2020.1.2,MacIntel,60,9,1,0.925125,9,1,0.870015,0,1,1,7,1,Stimuli/practiceStimuliSquare/practice4_s.png,Stimuli/practiceStimuliSquare/practice4_s.png,0,9,,,,,,,,,,
,,,,,,,20,female,B,2020-05-21_06h53.11.279,Remembering_Displays,2020.1.2,MacIntel,60,1,1,0.568315,1,1,0.58483,0,2,2,4,1,Stimuli/practiceStimuliSquare/practice1_s.png,Stimuli/practiceStimuliSquare/practice1_d.png,1,1,,,,,,,,,,
,,,,,,,20,female,B,2020-05-21_06h53.11.279,Remembering_Displays,2020.1.2,MacIntel,60,1,0,0.46946,9,1,0.78683,0,3,3,2,1,Stimuli/practiceStimuliSquare/practice3_s.png,Stimuli/practiceStimuliSquare/practice3_s.png,0,9,,,,,,,,,,
,,,,,,,20,female,B,2020-05-21_06h53.11.279,Remembering_Displays,2020.1.2,MacIntel,60,1,1,0.893635,9,1,0.618075,0,4,4,3,1,Stimuli/practiceStimuliSquare/practice4_s.png,Stimuli/practiceStimuliSquare/practice4_d.png,1,1,,,,,,,,,,
,,,,,,,20,female,B,2020-05-21_06h53.11.279,Remembering_Displays,2020.1.2,MacIntel,60,1,1,0.8561,1,1,1.21665,0,5,5,6,1,Stimuli/practiceStimuliSquare/practice3_s.png,Stimuli/practiceStimuliSquare/practice3_d.png,1,1,,,,,,,,,,
,,,,,,,20,female,B,2020-05-21_06h53.11.279,Remembering_Displays,2020.1.2,MacIntel,60,1,1,0.603235,9,1,0.785615,0,6,6,1,1,Stimuli/practiceStimuliSquare/practice2_s.png,Stimuli/practiceStimuliSquare/practice2_d.png,1,1,,,,,,,,,,
,,,,,,,20,female,B,2020-05-21_06h53.11.279,Remembering_Displays,2020.1.2,MacIntel,60,1,0,0.55586,1,1,0.973155,0,7,7,5,1,Stimuli/practiceStimuliSquare/practice2_s.png,Stimuli/practiceStimuliSquare/practice2_s.png,0,9,,,,,,,,,,
,,,,,,,20,female,B,2020-05-21_06h53.11.279,Remembering_Displays,2020.1.2,MacIntel,60,,,,,,,,,,,,,,,,0,2,2,2,1,Stimuli/practiceListSquares.xlsx,Instructions/instr_practice_A.png,Practice trials completed,,
,,,,,,,20,female,B,2020-05-21_06h53.11.279,Remembering_Displays,2020.1.2,MacIntel,60,1,1,0.702495,9,1,0.403845,0,0,0,19,1,Stimuli/testStimuliSquare/6u_s_22_s_2D.png,Stimuli/testStimuliSquare/6u_d_22_s_2D.png,1,1,,,,,,,,,s,2D
,,,,,,,20,female,B,2020-05-21_06h53.11.279,Remembering_Displays,2020.1.2,MacIntel,60,1,1,0.70232,9,1,0.90154,0,1,1,1,1,Stimuli/testStimuliSquare/6u_s_19_2D.png,Stimuli/testStimuliSquare/6u_d_19_2D.png,1,1,,,,,,,,,c,2D
,,,,,,,20,female,B,2020-05-21_06h53.11.279,Remembering_Displays,2020.1.2,MacIntel,60,1,1,1.057115,9,1,0.86969,0,2,2,5,1,Stimuli/testStimuliSquare/6u_s_21_2D.png,Stimuli/testStimuliSquare/6u_d_21_2D.png,1,1,,,,,,,,,c,2D
,,,,,,,20,female,B,2020-05-21_06h53.11.279,Remembering_Displays,2020.1.2,MacIntel,60,9,1,0.71289,1,1,0.635595,0,3,3,2,1,Stimuli/testStimuliSquare/6u_s_20_2D.png,Stimuli/testStimuliSquare/6u_s_20_2D.png,0,9,,,,,,,,,c,2D
,,,,,,,20,female,B,2020-05-21_06h53.11.279,Remembering_Displays,2020.1.2,MacIntel,60,9,1,1.10744,9,1,0.833965,0,4,4,16,1,Stimuli/testStimuliSquare/6u_s_21_s_2D.png,Stimuli/testStimuliSquare/6u_s_21_s_2D.png,0,9,,,,,,,,,s,2D
,,,,,,,20,female,B,2020-05-21_06h53.11.279,Remembering_Displays,2020.1.2,MacIntel,60,9,1,0.62516,1,1,0.452165,0,5,5,8,1,Stimuli/testStimuliSquare/6u_s_23_2D.png,Stimuli/testStimuliSquare/6u_s_23_2D.png,0,9,,,,,,,,,c,2D
,,,,,,,20,female,B,2020-05-21_06h53.11.279,Remembering_Displays,2020.1.2,MacIntel,60,9,1,0.67891,1,1,0.617065,0,6,6,4,1,Stimuli/testStimuliSquare/6u_s_21_2D.png,Stimuli/testStimuliSquare/6u_s_21_2D.png,0,9,,,,,,,,,c,2D
,,,,,,,20,female,B,2020-05-21_06h53.11.279,Remembering_Displays,2020.1.2,MacIntel,60,9,1,0.932255,1,1,0.43495,0,7,7,18,1,Stimuli/testStimuliSquare/6u_s_22_s_2D.png,Stimuli/testStimuliSquare/6u_s_22_s_2D.png,0,9,,,,,,,,,s,2D
,,,,,,,20,female,B,2020-05-21_06h53.11.279,Remembering_Displays,2020.1.2,MacIntel,60,9,1,0.57921,9,1,0.40389,0,8,8,10,1,Stimuli/testStimuliSquare/6u_s_24_2D.png,Stimuli/testStimuliSquare/6u_s_24_2D.png,0,9,,,,,,,,,c,2D
,,,,,,,20,female,B,2020-05-21_06h53.11.279,Remembering_Displays,2020.1.2,MacIntel,60,1,1,0.55731,1,1,0.61457,0,9,9,11,1,Stimuli/testStimuliSquare/6u_s_24_2D.png,Stimuli/testStimuliSquare/6u_d_24_2D.png,1,1,,,,,,,,,c,2D
,,,,,,,20,female,B,2020-05-21_06h53.11.279,Remembering_Displays,2020.1.2,MacIntel,60,9,0,0.733935,9,1,1.266105,0,10,10,9,1,Stimuli/testStimuliSquare/6u_s_23_2D.png,Stimuli/testStimuliSquare/6u_d_23_2D.png,1,1,,,,,,,,,c,2D
,,,,,,,20,female,B,2020-05-21_06h53.11.279,Remembering_Displays,2020.1.2,MacIntel,60,1,1,0.54915,9,1,0.859925,0,11,11,15,1,Stimuli/testStimuliSquare/6u_s_20_s_2D.png,Stimuli/testStimuliSquare/6u_d_20_s_2D.png,1,1,,,,,,,,,s,2D
,,,,,,,20,female,B,2020-05-21_06h53.11.279,Remembering_Displays,2020.1.2,MacIntel,60,1,1,0.580265,1,1,0.734625,0,12,12,7,1,Stimuli/testStimuliSquare/6u_s_22_2D.png,Stimuli/testStimuliSquare/6u_d_22_2D.png,1,1,,,,,,,,,c,2D
,,,,,,,20,female,B,2020-05-21_06h53.11.279,Remembering_Displays,2020.1.2,MacIntel,60,9,1,0.89634,9,1,0.589305,0,13,13,6,1,Stimuli/testStimuliSquare/6u_s_22_2D.png,Stimuli/testStimuliSquare/6u_s_22_2D.png,0,9,,,,,,,,,c,2D
,,,,,,,20,female,B,2020-05-21_06h53.11.279,Remembering_Displays,2020.1.2,MacIntel,60,1,0,0.659245,9,1,1.334125,0,14,14,22,1,Stimuli/testStimuliSquare/6u_s_24_s_2D.png,Stimuli/testStimuliSquare/6u_s_24_s_2D.png,0,9,,,,,,,,,s,2D
,,,,,,,20,female,B,2020-05-21_06h53.11.279,Remembering_Displays,2020.1.2,MacIntel,60,9,1,1.014325,1,1,0.784405,0,15,15,14,1,Stimuli/testStimuliSquare/6u_s_20_s_2D.png,Stimuli/testStimuliSquare/6u_s_20_s_2D.png,0,9,,,,,,,,,s,2D
,,,,,,,20,female,B,2020-05-21_06h53.11.279,Remembering_Displays,2020.1.2,MacIntel,60,9,1,1.068435,9,1,0.735365,0,16,16,0,1,Stimuli/testStimuliSquare/6u_s_19_2D.png,Stimuli/testStimuliSquare/6u_s_19_2D.png,0,9,,,,,,,,,c,2D
,,,,,,,20,female,B,2020-05-21_06h53.11.279,Remembering_Displays,2020.1.2,MacIntel,60,9,1,0.647545,1,1,0.653055,0,17,17,20,1,Stimuli/testStimuliSquare/6u_s_23_s_2D.png,Stimuli/testStimuliSquare/6u_s_23_s_2D.png,0,9,,,,,,,,,s,2D
,,,,,,,20,female,B,2020-05-21_06h53.11.279,Remembering_Displays,2020.1.2,MacIntel,60,1,1,0.620385,9,1,0.601735,0,18,18,21,1,Stimuli/testStimuliSquare/6u_s_23_s_2D.png,Stimuli/testStimuliSquare/6u_d_23_s_2D.png,1,1,,,,,,,,,s,2D
,,,,,,,20,female,B,2020-05-21_06h53.11.279,Remembering_Displays,2020.1.2,MacIntel,60,1,1,0.495785,9,1,0.667405,0,19,19,23,1,Stimuli/testStimuliSquare/6u_s_24_s_2D.png,Stimuli/testStimuliSquare/6u_d_24_s_2D.png,1,1,,,,,,,,,s,2D
,,,,,,,20,female,B,2020-05-21_06h53.11.279,Remembering_Displays,2020.1.2,MacIntel,60,9,0,0.598335,1,1,0.56829,0,20,20,13,1,Stimuli/testStimuliSquare/6u_s_19_s_2D.png,Stimuli/testStimuliSquare/6u_d_19_s_2D.png,1,1,,,,,,,,,s,2D
,,,,,,,20,female,B,2020-05-21_06h53.11.279,Remembering_Displays,2020.1.2,MacIntel,60,9,1,0.61478,9,1,0.785175,0,21,21,12,1,Stimuli/testStimuliSquare/6u_s_19_s_2D.png,Stimuli/testStimuliSquare/6u_s_19_s_2D.png,0,9,,,,,,,,,s,2D
,,,,,,,20,female,B,2020-05-21_06h53.11.279,Remembering_Displays,2020.1.2,MacIntel,60,1,1,0.675985,1,1,1.059115,0,22,22,17,1,Stimuli/testStimuliSquare/6u_s_21_s_2D.png,Stimuli/testStimuliSquare/6u_d_21_s_2D.png,1,1,,,,,,,,,s,2D
,,,,,,,20,female,B,2020-05-21_06h53.11.279,Remembering_Displays,2020.1.2,MacIntel,60,1,1,0.535115,9,1,0.70618,0,23,23,3,1,Stimuli/testStimuliSquare/6u_s_20_2D.png,Stimuli/testStimuliSquare/6u_d_20_2D.png,1,1,,,,,,,,,c,2D
,,,,,,,20,female,B,2020-05-21_06h53.11.279,Remembering_Displays,2020.1.2,MacIntel,60,,,,,,,,,,,,,,,,0,3,3,3,1,Stimuli/trialListSquares4.xlsx,Instructions/instr_18.png,Progress: 48 of 192 trials completed,,
,,,,,,,20,female,B,2020-05-21_06h53.11.279,Remembering_Displays,2020.1.2,MacIntel,60,1,1,0.838775,9,1,0.56134,0,0,0,19,1,Stimuli/testStimuliCube/6u_s_10_s.png,Stimuli/testStimuliCube/6u_d_10_s.png,1,1,,,,,,,,,s,3D
,,,,,,,20,female,B,2020-05-21_06h53.11.279,Remembering_Displays,2020.1.2,MacIntel,60,9,1,0.662765,1,1,0.535025,0,1,1,0,1,Stimuli/testStimuliCube/6u_s_7.png,Stimuli/testStimuliCube/6u_s_7.png,0,9,,,,,,,,,c,3D
,,,,,,,20,female,B,2020-05-21_06h53.11.279,Remembering_Displays,2020.1.2,MacIntel,60,1,1,0.465865,1,1,0.81657,0,2,2,1,1,Stimuli/testStimuliCube/6u_s_7.png,Stimuli/testStimuliCube/6u_d_7.png,1,1,,,,,,,,,c,3D
,,,,,,,20,female,B,2020-05-21_06h53.11.279,Remembering_Displays,2020.1.2,MacIntel,60,1,1,0.698225,9,1,0.651575,0,3,3,7,1,Stimuli/testStimuliCube/6u_s_10.png,Stimuli/testStimuliCube/6u_d_10.png,1,1,,,,,,,,,c,3D
,,,,,,,20,female,B,2020-05-21_06h53.11.279,Remembering_Displays,2020.1.2,MacIntel,60,9,1,0.769045,9,1,0.68533,0,4,4,14,1,Stimuli/testStimuliCube/6u_s_8_s.png,Stimuli/testStimuliCube/6u_s_8_s.png,0,9,,,,,,,,,s,3D
,,,,,,,20,female,B,2020-05-21_06h53.11.279,Remembering_Displays,2020.1.2,MacIntel,60,9,1,0.76497,1,1,1.014185,0,5,5,20,1,Stimuli/testStimuliCube/6u_s_11_s.png,Stimuli/testStimuliCube/6u_s_11_s.png,0,9,,,,,,,,,s,3D
,,,,,,,20,female,B,2020-05-21_06h53.11.279,Remembering_Displays,2020.1.2,MacIntel,60,9,1,0.795775,9,1,0.76876,0,6,6,10,1,Stimuli/testStimuliCube/6u_s_12.png,Stimuli/testStimuliCube/6u_s_12.png,0,9,,,,,,,,,c,3D
,,,,,,,20,female,B,2020-05-21_06h53.11.279,Remembering_Displays,2020.1.2,MacIntel,60,9,0,0.815175,1,1,0.748435,0,7,7,9,1,Stimuli/testStimuliCube/6u_s_11.png,Stimuli/testStimuliCube/6u_d_11.png,1,1,,,,,,,,,c,3D
,,,,,,,20,female,B,2020-05-21_06h53.11.279,Remembering_Displays,2020.1.2,MacIntel,60,9,1,0.60788,9,1,1.323085,0,8,8,16,1,Stimuli/testStimuliCube/6u_s_9_s.png,Stimuli/testStimuliCube/6u_s_9_s.png,0,9,,,,,,,,,s,3D
,,,,,,,20,female,B,2020-05-21_06h53.11.279,Remembering_Displays,2020.1.2,MacIntel,60,1,0,1.061075,1,1,0.40205,0,9,9,8,1,Stimuli/testStimuliCube/6u_s_11.png,Stimuli/testStimuliCube/6u_s_11.png,0,9,,,,,,,,,c,3D
,,,,,,,20,female,B,2020-05-21_06h53.11.279,Remembering_Displays,2020.1.2,MacIntel,60,1,1,0.61421,1,1,0.50448,0,10,10,5,1,Stimuli/testStimuliCube/6u_s_9.png,Stimuli/testStimuliCube/6u_d_9.png,1,1,,,,,,,,,c,3D
,,,,,,,20,female,B,2020-05-21_06h53.11.279,Remembering_Displays,2020.1.2,MacIntel,60,1,1,0.528485,1,1,1.30927,0,11,11,13,1,Stimuli/testStimuliCube/6u_s_7_s.png,Stimuli/testStimuliCube/6u_d_7_s.png,1,1,,,,,,,,,s,3D
,,,,,,,20,female,B,2020-05-21_06h53.11.279,Remembering_Displays,2020.1.2,MacIntel,60,9,1,0.61373,1,1,0.469765,0,12,12,4,1,Stimuli/testStimuliCube/6u_s_9.png,Stimuli/testStimuliCube/6u_s_9.png,0,9,,,,,,,,,c,3D
,,,,,,,20,female,B,2020-05-21_06h53.11.279,Remembering_Displays,2020.1.2,MacIntel,60,1,0,0.77717,1,1,0.40158,0,13,13,2,1,Stimuli/testStimuliCube/6u_s_8.png,Stimuli/testStimuliCube/6u_s_8.png,0,9,,,,,,,,,c,3D
,,,,,,,20,female,B,2020-05-21_06h53.11.279,Remembering_Displays,2020.1.2,MacIntel,60,9,1,0.717285,1,1,0.620095,0,14,14,18,1,Stimuli/testStimuliCube/6u_s_10_s.png,Stimuli/testStimuliCube/6u_s_10_s.png,0,9,,,,,,,,,s,3D
,,,,,,,20,female,B,2020-05-21_06h53.11.279,Remembering_Displays,2020.1.2,MacIntel,60,1,1,0.592855,1,1,1.00087,0,15,15,11,1,Stimuli/testStimuliCube/6u_s_12.png,Stimuli/testStimuliCube/6u_d_12.png,1,1,,,,,,,,,c,3D
,,,,,,,20,female,B,2020-05-21_06h53.11.279,Remembering_Displays,2020.1.2,MacIntel,60,9,1,0.711695,9,1,0.635295,0,16,16,22,1,Stimuli/testStimuliCube/6u_s_12_s.png,Stimuli/testStimuliCube/6u_s_12_s.png,0,9,,,,,,,,,s,3D
,,,,,,,20,female,B,2020-05-21_06h53.11.279,Remembering_Displays,2020.1.2,MacIntel,60,1,1,0.61799,1,1,0.81879,0,17,17,23,1,Stimuli/testStimuliCube/6u_s_12_s.png,Stimuli/testStimuliCube/6u_d_12_s.png,1,1,,,,,,,,,s,3D
,,,,,,,20,female,B,2020-05-21_06h53.11.279,Remembering_Displays,2020.1.2,MacIntel,60,1,1,1.268175,9,1,0.802095,0,18,18,3,1,Stimuli/testStimuliCube/6u_s_8.png,Stimuli/testStimuliCube/6u_d_8.png,1,1,,,,,,,,,c,3D
,,,,,,,20,female,B,2020-05-21_06h53.11.279,Remembering_Displays,2020.1.2,MacIntel,60,9,1,0.91508,9,1,0.48807,0,19,19,6,1,Stimuli/testStimuliCube/6u_s_10.png,Stimuli/testStimuliCube/6u_s_10.png,0,9,,,,,,,,,c,3D
,,,,,,,20,female,B,2020-05-21_06h53.11.279,Remembering_Displays,2020.1.2,MacIntel,60,1,0,0.662035,9,1,1.112555,0,20,20,12,1,Stimuli/testStimuliCube/6u_s_7_s.png,Stimuli/testStimuliCube/6u_s_7_s.png,0,9,,,,,,,,,s,3D
,,,,,,,20,female,B,2020-05-21_06h53.11.279,Remembering_Displays,2020.1.2,MacIntel,60,1,1,0.490295,1,1,0.652295,0,21,21,17,1,Stimuli/testStimuliCube/6u_s_9_s.png,Stimuli/testStimuliCube/6u_d_9_s.png,1,1,,,,,,,,,s,3D
,,,,,,,20,female,B,2020-05-21_06h53.11.279,Remembering_Displays,2020.1.2,MacIntel,60,1,1,0.637695,9,1,0.95885,0,22,22,15,1,Stimuli/testStimuliCube/6u_s_8_s.png,Stimuli/testStimuliCube/6u_d_8_s.png,1,1,,,,,,,,,s,3D
,,,,,,,20,female,B,2020-05-21_06h53.11.279,Remembering_Displays,2020.1.2,MacIntel,60,1,1,0.86358,9,1,0.76963,0,23,23,21,1,Stimuli/testStimuliCube/6u_s_11_s.png,Stimuli/testStimuliCube/6u_d_11_s.png,1,1,,,,,,,,,s,3D
,,,,,,,20,female,B,2020-05-21_06h53.11.279,Remembering_Displays,2020.1.2,MacIntel,60,,,,,,,,,,,,,,,,0,4,4,4,1,Stimuli/trialListCubes2.xlsx,Instructions/instr_19.png,Progress: 72 of 192 trials completed,,
,,,,,,,20,female,B,2020-05-21_06h53.11.279,Remembering_Displays,2020.1.2,MacIntel,60,9,0,0.646355,9,1,0.72719,0,0,0,13,1,Stimuli/testStimuliSquare/6u_s_13_s_2D.png,Stimuli/testStimuliSquare/6u_d_13_s_2D.png,1,1,,,,,,,,,s,2D
,,,,,,,20,female,B,2020-05-21_06h53.11.279,Remembering_Displays,2020.1.2,MacIntel,60,9,1,1.08348,1,1,1.18641,0,1,1,20,1,Stimuli/testStimuliSquare/6u_s_17_s_2D.png,Stimuli/testStimuliSquare/6u_s_17_s_2D.png,0,9,,,,,,,,,s,2D
,,,,,,,20,female,B,2020-05-21_06h53.11.279,Remembering_Displays,2020.1.2,MacIntel,60,1,1,0.70977,9,1,1.02518,0,2,2,11,1,Stimuli/testStimuliSquare/6u_s_18_2D.png,Stimuli/testStimuliSquare/6u_d_18_2D.png,1,1,,,,,,,,,c,2D
,,,,,,,20,female,B,2020-05-21_06h53.11.279,Remembering_Displays,2020.1.2,MacIntel,60,1,0,1.01728,9,1,0.596435,0,3,3,18,1,Stimuli/testStimuliSquare/6u_s_16_s_2D.png,Stimuli/testStimuliSquare/6u_s_16_s_2D.png,0,9,,,,,,,,,s,2D
,,,,,,,20,female,B,2020-05-21_06h53.11.279,Remembering_Displays,2020.1.2,MacIntel,60,1,1,0.56349,1,1,0.685895,0,4,4,19,1,Stimuli/testStimuliSquare/6u_s_16_s_2D.png,Stimuli/testStimuliSquare/6u_d_16_s_2D.png,1,1,,,,,,,,,s,2D
,,,,,,,20,female,B,2020-05-21_06h53.11.279,Remembering_Displays,2020.1.2,MacIntel,60,1,1,0.477615,9,1,1.19644,0,5,5,17,1,Stimuli/testStimuliSquare/6u_s_15_s_2D.png,Stimuli/testStimuliSquare/6u_d_15_s_2D.png,1,1,,,,,,,,,s,2D
,,,,,,,20,female,B,2020-05-21_06h53.11.279,Remembering_Displays,2020.1.2,MacIntel,60,1,1,0.461865,9,1,0.87639,0,6,6,5,1,Stimuli/testStimuliSquare/6u_s_15_2D.png,Stimuli/testStimuliSquare/6u_d_15_2D.png,1,1,,,,,,,,,c,2D
,,,,,,,20,female,B,2020-05-21_06h53.11.279,Remembering_Displays,2020.1.2,MacIntel,60,9,1,0.700655,9,1,0.59461,0,7,7,2,1,Stimuli/testStimuliSquare/6u_s_14_2D.png,Stimuli/testStimuliSquare/6u_s_14_2D.png,0,9,,,,,,,,,c,2D
,,,,,,,20,female,B,2020-05-21_06h53.11.279,Remembering_Displays,2020.1.2,MacIntel,60,1,1,0.48746,1,1,0.67131,0,8,8,15,1,Stimuli/testStimuliSquare/6u_s_14_s_2D.png,Stimuli/testStimuliSquare/6u_d_14_s_2D.png,1,1,,,,,,,,,s,2D
,,,,,,,20,female,B,2020-05-21_06h53.11.279,Remembering_Displays,2020.1.2,MacIntel,60,9,0,0.83121,1,1,0.36652,0,9,9,21,1,Stimuli/testStimuliSquare/6u_s_17_s_2D.png,Stimuli/testStimuliSquare/6u_d_17_s_2D.png,1,1,,,,,,,,,s,2D
,,,,,,,20,female,B,2020-05-21_06h53.11.279,Remembering_Displays,2020.1.2,MacIntel,60,1,1,0.71262,1,1,0.717615,0,10,10,9,1,Stimuli/testStimuliSquare/6u_s_17_2D.png,Stimuli/testStimuliSquare/6u_d_17_2D.png,1,1,,,,,,,,,c,2D
,,,,,,,20,female,B,2020-05-21_06h53.11.279,Remembering_Displays,2020.1.2,MacIntel,60,9,1,0.686995,9,1,0.612495,0,11,11,0,1,Stimuli/testStimuliSquare/6u_s_13_2D.png,Stimuli/testStimuliSquare/6u_s_13_2D.png,0,9,,,,,,,,,c,2D
,,,,,,,20,female,B,2020-05-21_06h53.11.279,Remembering_Displays,2020.1.2,MacIntel,60,9,1,0.589755,1,1,0.51291,0,12,12,8,1,Stimuli/testStimuliSquare/6u_s_17_2D.png,Stimuli/testStimuliSquare/6u_s_17_2D.png,0,9,,,,,,,,,c,2D
,,,,,,,20,female,B,2020-05-21_06h53.11.279,Remembering_Displays,2020.1.2,MacIntel,60,9,1,0.56853,1,1,0.467705,0,13,13,22,1,Stimuli/testStimuliSquare/6u_s_18_s_2D.png,Stimuli/testStimuliSquare/6u_s_18_s_2D.png,0,9,,,,,,,,,s,2D
,,,,,,,20,female,B,2020-05-21_06h53.11.279,Remembering_Displays,2020.1.2,MacIntel,60,9,1,0.702895,9,0,0.591805,0,14,14,4,1,Stimuli/testStimuliSquare/6u_s_15_2D.png,Stimuli/testStimuliSquare/6u_s_15_2D.png,0,9,,,,,,,,,c,2D
,,,,,,,20,female,B,2020-05-21_06h53.11.279,Remembering_Displays,2020.1.2,MacIntel,60,9,1,1.003265,1,1,0.568315,0,15,15,14,1,Stimuli/testStimuliSquare/6u_s_14_s_2D.png,Stimuli/testStimuliSquare/6u_s_14_s_2D.png,0,9,,,,,,,,,s,2D
,,,,,,,20,female,B,2020-05-21_06h53.11.279,Remembering_Displays,2020.1.2,MacIntel,60,1,1,1.05629,9,1,0.93498,0,16,16,23,1,Stimuli/testStimuliSquare/6u_s_18_s_2D.png,Stimuli/testStimuliSquare/6u_d_18_s_2D.png,1,1,,,,,,,,,s,2D
,,,,,,,20,female,B,2020-05-21_06h53.11.279,Remembering_Displays,2020.1.2,MacIntel,60,9,1,1.11146,1,1,0.722735,0,17,17,10,1,Stimuli/testStimuliSquare/6u_s_18_2D.png,Stimuli/testStimuliSquare/6u_s_18_2D.png,0,9,,,,,,,,,c,2D
,,,,,,,20,female,B,2020-05-21_06h53.11.279,Remembering_Displays,2020.1.2,MacIntel,60,9,1,0.974815,1,1,0.64512,0,18,18,16,1,Stimuli/testStimuliSquare/6u_s_15_s_2D.png,Stimuli/testStimuliSquare/6u_s_15_s_2D.png,0,9,,,,,,,,,s,2D
,,,,,,,20,female,B,2020-05-21_06h53.11.279,Remembering_Displays,2020.1.2,MacIntel,60,9,1,0.556685,1,1,0.453745,0,19,19,12,1,Stimuli/testStimuliSquare/6u_s_13_s_2D.png,Stimuli/testStimuliSquare/6u_s_13_s_2D.png,0,9,,,,,,,,,s,2D
,,,,,,,20,female,B,2020-05-21_06h53.11.279,Remembering_Displays,2020.1.2,MacIntel,60,1,1,0.537305,9,1,0.830365,0,20,20,7,1,Stimuli/testStimuliSquare/6u_s_16_2D.png,Stimuli/testStimuliSquare/6u_d_16_2D.png,1,1,,,,,,,,,c,2D
,,,,,,,20,female,B,2020-05-21_06h53.11.279,Remembering_Displays,2020.1.2,MacIntel,60,1,1,0.438555,1,1,0.61726,0,21,21,3,1,Stimuli/testStimuliSquare/6u_s_14_2D.png,Stimuli/testStimuliSquare/6u_d_14_2D.png,1,1,,,,,,,,,c,2D
,,,,,,,20,female,B,2020-05-21_06h53.11.279,Remembering_Displays,2020.1.2,MacIntel,60,9,0,0.605455,1,1,0.611165,0,22,22,1,1,Stimuli/testStimuliSquare/6u_s_13_2D.png,Stimuli/testStimuliSquare/6u_d_13_2D.png,1,1,,,,,,,,,c,2D
,,,,,,,20,female,B,2020-05-21_06h53.11.279,Remembering_Displays,2020.1.2,MacIntel,60,9,1,0.5665,9,0,1.017075,0,23,23,6,1,Stimuli/testStimuliSquare/6u_s_16_2D.png,Stimuli/testStimuliSquare/6u_s_16_2D.png,0,9,,,,,,,,,c,2D
,,,,,,,20,female,B,2020-05-21_06h53.11.279,Remembering_Displays,2020.1.2,MacIntel,60,,,,,,,,,,,,,,,,0,5,5,5,1,Stimuli/trialListSquares3.xlsx,Instructions/instr_18.png,Progress: 96 of 192 trials completed,,
,,,,,,,20,female,B,2020-05-21_06h53.11.279,Remembering_Displays,2020.1.2,MacIntel,60,1,1,0.57997,9,1,0.68554,0,0,0,7,1,Stimuli/testStimuliCube/6u_s_16.png,Stimuli/testStimuliCube/6u_d_16.png,1,1,,,,,,,,,c,3D
,,,,,,,20,female,B,2020-05-21_06h53.11.279,Remembering_Displays,2020.1.2,MacIntel,60,1,1,0.70508,9,1,0.634385,0,1,1,23,1,Stimuli/testStimuliCube/6u_s_18_s.png,Stimuli/testStimuliCube/6u_d_18_s.png,1,1,,,,,,,,,s,3D
,,,,,,,20,female,B,2020-05-21_06h53.11.279,Remembering_Displays,2020.1.2,MacIntel,60,9,1,0.555885,9,1,0.79555,0,2,2,16,1,Stimuli/testStimuliCube/6u_s_15_s.png,Stimuli/testStimuliCube/6u_s_15_s.png,0,9,,,,,,,,,s,3D
,,,,,,,20,female,B,2020-05-21_06h53.11.279,Remembering_Displays,2020.1.2,MacIntel,60,1,0,0.86173,9,1,0.79154,0,3,3,6,1,Stimuli/testStimuliCube/6u_s_16.png,Stimuli/testStimuliCube/6u_s_16.png,0,9,,,,,,,,,c,3D
,,,,,,,20,female,B,2020-05-21_06h53.11.279,Remembering_Displays,2020.1.2,MacIntel,60,1,1,0.571135,1,1,0.41399,0,4,4,3,1,Stimuli/testStimuliCube/6u_s_14.png,Stimuli/testStimuliCube/6u_d_14.png,1,1,,,,,,,,,c,3D
,,,,,,,20,female,B,2020-05-21_06h53.11.279,Remembering_Displays,2020.1.2,MacIntel,60,1,1,0.591635,1,1,0.48439,0,5,5,9,1,Stimuli/testStimuliCube/6u_s_17.png,Stimuli/testStimuliCube/6u_d_17.png,1,1,,,,,,,,,c,3D
,,,,,,,20,female,B,2020-05-21_06h53.11.279,Remembering_Displays,2020.1.2,MacIntel,60,9,1,0.733185,9,1,0.720345,0,6,6,18,1,Stimuli/testStimuliCube/6u_s_16_s.png,Stimuli/testStimuliCube/6u_s_16_s.png,0,9,,,,,,,,,s,3D
,,,,,,,20,female,B,2020-05-21_06h53.11.279,Remembering_Displays,2020.1.2,MacIntel,60,1,1,0.548945,9,1,0.452905,0,7,7,19,1,Stimuli/testStimuliCube/6u_s_16_s.png,Stimuli/testStimuliCube/6u_d_16_s.png,1,1,,,,,,,,,s,3D
,,,,,,,20,female,B,2020-05-21_06h53.11.279,Remembering_Displays,2020.1.2,MacIntel,60,9,1,0.544155,1,1,0.46803,0,8,8,22,1,Stimuli/testStimuliCube/6u_s_18_s.png,Stimuli/testStimuliCube/6u_s_18_s.png,0,9,,,,,,,,,s,3D
,,,,,,,20,female,B,2020-05-21_06h53.11.279,Remembering_Displays,2020.1.2,MacIntel,60,1,1,0.459445,9,1,0.868665,0,9,9,5,1,Stimuli/testStimuliCube/6u_s_15.png,Stimuli/testStimuliCube/6u_d_15.png,1,1,,,,,,,,,c,3D
,,,,,,,20,female,B,2020-05-21_06h53.11.279,Remembering_Displays,2020.1.2,MacIntel,60,9,1,0.46457,9,1,0.65237,0,10,10,0,1,Stimuli/testStimuliCube/6u_s_13.png,Stimuli/testStimuliCube/6u_s_13.png,0,9,,,,,,,,,c,3D
,,,,,,,20,female,B,2020-05-21_06h53.11.279,Remembering_Displays,2020.1.2,MacIntel,60,9,1,0.469485,1,1,0.318725,0,11,11,8,1,Stimuli/testStimuliCube/6u_s_17.png,Stimuli/testStimuliCube/6u_s_17.png,0,9,,,,,,,,,c,3D
,,,,,,,20,female,B,2020-05-21_06h53.11.279,Remembering_Displays,2020.1.2,MacIntel,60,9,0,0.56971,9,1,0.73539,0,12,12,1,1,Stimuli/testStimuliCube/6u_s_13.png,Stimuli/testStimuliCube/6u_d_13.png,1,1,,,,,,,,,c,3D
,,,,,,,20,female,B,2020-05-21_06h53.11.279,Remembering_Displays,2020.1.2,MacIntel,60,9,1,0.684645,9,1,0.584305,0,13,13,20,1,Stimuli/testStimuliCube/6u_s_17_s.png,Stimuli/testStimuliCube/6u_s_17_s.png,0,9,,,,,,,,,s,3D
,,,,,,,20,female,B,2020-05-21_06h53.11.279,Remembering_Displays,2020.1.2,MacIntel,60,1,1,0.48378,9,1,0.667485,0,14,14,17,1,Stimuli/testStimuliCube/6u_s_15_s.png,Stimuli/testStimuliCube/6u_d_15_s.png,1,1,,,,,,,,,s,3D
,,,,,,,20,female,B,2020-05-21_06h53.11.279,Remembering_Displays,2020.1.2,MacIntel,60,9,0,0.512185,9,0,0.903085,0,15,15,13,1,Stimuli/testStimuliCube/6u_s_13_s.png,Stimuli/testStimuliCube/6u_d_13_s.png,1,1,,,,,,,,,s,3D
,,,,,,,20,female,B,2020-05-21_06h53.11.279,Remembering_Displays,2020.1.2,MacIntel,60,9,1,0.62129,1,1,0.59081,0,16,16,2,1,Stimuli/testStimuliCube/6u_s_14.png,Stimuli/testStimuliCube/6u_s_14.png,0,9,,,,,,,,,c,3D
,,,,,,,20,female,B,2020-05-21_06h53.11.279,Remembering_Displays,2020.1.2,MacIntel,60,1,1,1.08624,9,0,0.685595,0,17,17,15,1,Stimuli/testStimuliCube/6u_s_14_s.png,Stimuli/testStimuliCube/6u_d_14_s.png,1,1,,,,,,,,,s,3D
,,,,,,,20,female,B,2020-05-21_06h53.11.279,Remembering_Displays,2020.1.2,MacIntel,60,9,1,0.80909,1,1,0.618395,0,18,18,14,1,Stimuli/testStimuliCube/6u_s_14_s.png,Stimuli/testStimuliCube/6u_s_14_s.png,0,9,,,,,,,,,s,3D
,,,,,,,20,female,B,2020-05-21_06h53.11.279,Remembering_Displays,2020.1.2,MacIntel,60,9,0,1.05331,9,1,0.7672,0,19,19,21,1,Stimuli/testStimuliCube/6u_s_17_s.png,Stimuli/testStimuliCube/6u_d_17_s.png,1,1,,,,,,,,,s,3D
,,,,,,,20,female,B,2020-05-21_06h53.11.279,Remembering_Displays,2020.1.2,MacIntel,60,1,1,0.905525,9,1,0.80658,0,20,20,11,1,Stimuli/testStimuliCube/6u_s_18.png,Stimuli/testStimuliCube/6u_d_18.png,1,1,,,,,,,,,c,3D
,,,,,,,20,female,B,2020-05-21_06h53.11.279,Remembering_Displays,2020.1.2,MacIntel,60,9,1,0.50565,1,1,0.668635,0,21,21,12,1,Stimuli/testStimuliCube/6u_s_13_s.png,Stimuli/testStimuliCube/6u_s_13_s.png,0,9,,,,,,,,,s,3D
,,,,,,,20,female,B,2020-05-21_06h53.11.279,Remembering_Displays,2020.1.2,MacIntel,60,9,1,0.80876,9,1,0.751055,0,22,22,4,1,Stimuli/testStimuliCube/6u_s_15.png,Stimuli/testStimuliCube/6u_s_15.png,0,9,,,,,,,,,c,3D
,,,,,,,20,female,B,2020-05-21_06h53.11.279,Remembering_Displays,2020.1.2,MacIntel,60,9,1,0.705455,9,1,0.61918,0,23,23,10,1,Stimuli/testStimuliCube/6u_s_18.png,Stimuli/testStimuliCube/6u_s_18.png,0,9,,,,,,,,,c,3D
,,,,,,,20,female,B,2020-05-21_06h53.11.279,Remembering_Displays,2020.1.2,MacIntel,60,,,,,,,,,,,,,,,,0,6,6,6,1,Stimuli/trialListCubes3.xlsx,Instructions/instr_19.png,Progress: 120 of 192 trials completed,,
,,,,,,,20,female,B,2020-05-21_06h53.11.279,Remembering_Displays,2020.1.2,MacIntel,60,1,1,0.60991,1,1,0.384895,0,0,0,11,1,Stimuli/testStimuliSquare/6u_s_12_2D.png,Stimuli/testStimuliSquare/6u_d_12_2D.png,1,1,,,,,,,,,c,2D
,,,,,,,20,female,B,2020-05-21_06h53.11.279,Remembering_Displays,2020.1.2,MacIntel,60,9,1,0.66378,1,1,1.03384,0,1,1,8,1,Stimuli/testStimuliSquare/6u_s_11_2D.png,Stimuli/testStimuliSquare/6u_s_11_2D.png,0,9,,,,,,,,,c,2D
,,,,,,,20,female,B,2020-05-21_06h53.11.279,Remembering_Displays,2020.1.2,MacIntel,60,1,1,0.498425,9,1,0.61867,0,2,2,13,1,Stimuli/testStimuliSquare/6u_s_7_s_2D.png,Stimuli/testStimuliSquare/6u_d_7_s_2D.png,1,1,,,,,,,,,s,2D
,,,,,,,20,female,B,2020-05-21_06h53.11.279,Remembering_Displays,2020.1.2,MacIntel,60,9,1,0.66499,1,1,0.43259,0,3,3,12,1,Stimuli/testStimuliSquare/6u_s_7_s_2D.png,Stimuli/testStimuliSquare/6u_s_7_s_2D.png,0,9,,,,,,,,,s,2D
,,,,,,,20,female,B,2020-05-21_06h53.11.279,Remembering_Displays,2020.1.2,MacIntel,60,9,1,0.47492,1,1,0.73523,0,4,4,18,1,Stimuli/testStimuliSquare/6u_s_10_s_2D.png,Stimuli/testStimuliSquare/6u_s_10_s_2D.png,0,9,,,,,,,,,s,2D
,,,,,,,20,female,B,2020-05-21_06h53.11.279,Remembering_Displays,2020.1.2,MacIntel,60,1,1,0.548965,9,1,0.56852,0,5,5,17,1,Stimuli/testStimuliSquare/6u_s_9_s_2D.png,Stimuli/testStimuliSquare/6u_d_9_s_2D.png,1,1,,,,,,,,,s,2D
,,,,,,,20,female,B,2020-05-21_06h53.11.279,Remembering_Displays,2020.1.2,MacIntel,60,1,1,0.520985,9,1,0.502645,0,6,6,5,1,Stimuli/testStimuliSquare/6u_s_9_2D.png,Stimuli/testStimuliSquare/6u_d_9_2D.png,1,1,,,,,,,,,c,2D
,,,,,,,20,female,B,2020-05-21_06h53.11.279,Remembering_Displays,2020.1.2,MacIntel,60,9,0,0.68078,1,1,0.53361,0,7,7,19,1,Stimuli/testStimuliSquare/6u_s_10_s_2D.png,Stimuli/testStimuliSquare/6u_d_10_s_2D.png,1,1,,,,,,,,,s,2D
,,,,,,,20,female,B,2020-05-21_06h53.11.279,Remembering_Displays,2020.1.2,MacIntel,60,1,0,0.758435,1,1,0.553385,0,8,8,0,1,Stimuli/testStimuliSquare/6u_s_7_2D.png,Stimuli/testStimuliSquare/6u_s_7_2D.png,0,9,,,,,,,,,c,2D
,,,,,,,20,female,B,2020-05-21_06h53.11.279,Remembering_Displays,2020.1.2,MacIntel,60,9,1,0.47626,9,1,0.61745,0,9,9,22,1,Stimuli/testStimuliSquare/6u_s_12_s_2D.png,Stimuli/testStimuliSquare/6u_s_12_s_2D.png,0,9,,,,,,,,,s,2D
,,,,,,,20,female,B,2020-05-21_06h53.11.279,Remembering_Displays,2020.1.2,MacIntel,60,9,1,0.49171,9,1,0.519265,0,10,10,6,1,Stimuli/testStimuliSquare/6u_s_10_2D.png,Stimuli/testStimuliSquare/6u_s_10_2D.png,0,9,,,,,,,,,c,2D
,,,,,,,20,female,B,2020-05-21_06h53.11.279,Remembering_Displays,2020.1.2,MacIntel,60,9,1,0.77876,9,1,0.519075,0,11,11,20,1,Stimuli/testStimuliSquare/6u_s_11_s_2D.png,Stimuli/testStimuliSquare/6u_s_11_s_2D.png,0,9,,,,,,,,,s,2D
,,,,,,,20,female,B,2020-05-21_06h53.11.279,Remembering_Displays,2020.1.2,MacIntel,60,1,1,0.62637,1,1,0.701395,0,12,12,23,1,Stimuli/testStimuliSquare/6u_s_12_s_2D.png,Stimuli/testStimuliSquare/6u_d_12_s_2D.png,1,1,,,,,,,,,s,2D
,,,,,,,20,female,B,2020-05-21_06h53.11.279,Remembering_Displays,2020.1.2,MacIntel,60,1,1,0.75843,9,1,0.77906,0,13,13,7,1,Stimuli/testStimuliSquare/6u_s_10_2D.png,Stimuli/testStimuliSquare/6u_d_10_2D.png,1,1,,,,,,,,,c,2D
,,,,,,,20,female,B,2020-05-21_06h53.11.279,Remembering_Displays,2020.1.2,MacIntel,60,1,1,0.570805,9,1,0.635325,0,14,14,9,1,Stimuli/testStimuliSquare/6u_s_11_2D.png,Stimuli/testStimuliSquare/6u_d_11_2D.png,1,1,,,,,,,,,c,2D
,,,,,,,20,female,B,2020-05-21_06h53.11.279,Remembering_Displays,2020.1.2,MacIntel,60,1,1,0.485045,1,1,0.53683,0,15,15,15,1,Stimuli/testStimuliSquare/6u_s_8_s_2D.png,Stimuli/testStimuliSquare/6u_d_8_s_2D.png,1,1,,,,,,,,,s,2D
,,,,,,,20,female,B,2020-05-21_06h53.11.279,Remembering_Displays,2020.1.2,MacIntel,60,9,1,0.84051,9,1,0.76832,0,16,16,4,1,Stimuli/testStimuliSquare/6u_s_9_2D.png,Stimuli/testStimuliSquare/6u_s_9_2D.png,0,9,,,,,,,,,c,2D
,,,,,,,20,female,B,2020-05-21_06h53.11.279,Remembering_Displays,2020.1.2,MacIntel,60,1,1,0.49619,9,1,0.617825,0,17,17,3,1,Stimuli/testStimuliSquare/6u_s_8_2D.png,Stimuli/testStimuliSquare/6u_d_8_2D.png,1,1,,,,,,,,,c,2D
,,,,,,,20,female,B,2020-05-21_06h53.11.279,Remembering_Displays,2020.1.2,MacIntel,60,1,0,0.70116,1,1,0.380435,0,18,18,16,1,Stimuli/testStimuliSquare/6u_s_9_s_2D.png,Stimuli/testStimuliSquare/6u_s_9_s_2D.png,0,9,,,,,,,,,s,2D
,,,,,,,20,female,B,2020-05-21_06h53.11.279,Remembering_Displays,2020.1.2,MacIntel,60,9,1,0.767705,9,1,0.550975,0,19,19,2,1,Stimuli/testStimuliSquare/6u_s_8_2D.png,Stimuli/testStimuliSquare/6u_s_8_2D.png,0,9,,,,,,,,,c,2D
,,,,,,,20,female,B,2020-05-21_06h53.11.279,Remembering_Displays,2020.1.2,MacIntel,60,1,1,0.52261,1,1,0.704925,0,20,20,1,1,Stimuli/testStimuliSquare/6u_s_7_2D.png,Stimuli/testStimuliSquare/6u_d_7_2D.png,1,1,,,,,,,,,c,2D
,,,,,,,20,female,B,2020-05-21_06h53.11.279,Remembering_Displays,2020.1.2,MacIntel,60,9,1,0.595035,1,1,1.418395,0,21,21,10,1,Stimuli/testStimuliSquare/6u_s_12_2D.png,Stimuli/testStimuliSquare/6u_s_12_2D.png,0,9,,,,,,,,,c,2D
,,,,,,,20,female,B,2020-05-21_06h53.11.279,Remembering_Displays,2020.1.2,MacIntel,60,1,1,0.95147,9,1,1.08622,0,22,22,21,1,Stimuli/testStimuliSquare/6u_s_11_s_2D.png,Stimuli/testStimuliSquare/6u_d_11_s_2D.png,1,1,,,,,,,,,s,2D
,,,,,,,20,female,B,2020-05-21_06h53.11.279,Remembering_Displays,2020.1.2,MacIntel,60,9,1,0.476045,1,1,0.40809,0,23,23,14,1,Stimuli/testStimuliSquare/6u_s_8_s_2D.png,Stimuli/testStimuliSquare/6u_s_8_s_2D.png,0,9,,,,,,,,,s,2D
,,,,,,,20,female,B,2020-05-21_06h53.11.279,Remembering_Displays,2020.1.2,MacIntel,60,,,,,,,,,,,,,,,,0,7,7,7,1,Stimuli/trialListSquares2.xlsx,Instructions/instr_18.png,Progress: 144 of 192 trials completed,,
,,,,,,,20,female,B,2020-05-21_06h53.11.279,Remembering_Displays,2020.1.2,MacIntel,60,9,1,0.4432,1,1,0.518735,0,0,0,4,1,Stimuli/testStimuliCube/6u_s_21.png,Stimuli/testStimuliCube/6u_s_21.png,0,9,,,,,,,,,c,3D
,,,,,,,20,female,B,2020-05-21_06h53.11.279,Remembering_Displays,2020.1.2,MacIntel,60,9,1,0.62106,9,1,0.70429,0,1,1,12,1,Stimuli/testStimuliCube/6u_s_19_s.png,Stimuli/testStimuliCube/6u_s_19_s.png,0,9,,,,,,,,,s,3D
,,,,,,,20,female,B,2020-05-21_06h53.11.279,Remembering_Displays,2020.1.2,MacIntel,60,9,1,0.599635,1,1,0.703165,0,2,2,0,1,Stimuli/testStimuliCube/6u_s_19.png,Stimuli/testStimuliCube/6u_s_19.png,0,9,,,,,,,,,c,3D
,,,,,,,20,female,B,2020-05-21_06h53.11.279,Remembering_Displays,2020.1.2,MacIntel,60,9,1,0.57344,9,1,0.735275,0,3,3,6,1,Stimuli/testStimuliCube/6u_s_22.png,Stimuli/testStimuliCube/6u_s_22.png,0,9,,,,,,,,,c,3D
,,,,,,,20,female,B,2020-05-21_06h53.11.279,Remembering_Displays,2020.1.2,MacIntel,60,9,0,0.673015,9,1,0.58495,0,4,4,9,1,Stimuli/testStimuliCube/6u_s_23.png,Stimuli/testStimuliCube/6u_d_23.png,1,1,,,,,,,,,c,3D
,,,,,,,20,female,B,2020-05-21_06h53.11.279,Remembering_Displays,2020.1.2,MacIntel,60,1,1,0.66884,9,1,0.650945,0,5,5,21,1,Stimuli/testStimuliCube/6u_s_23_s.png,Stimuli/testStimuliCube/6u_d_23_s.png,1,1,,,,,,,,,s,3D
,,,,,,,20,female,B,2020-05-21_06h53.11.279,Remembering_Displays,2020.1.2,MacIntel,60,1,1,0.51099,1,1,0.6503,0,6,6,7,1,Stimuli/testStimuliCube/6u_s_22.png,Stimuli/testStimuliCube/6u_d_22.png,1,1,,,,,,,,,c,3D
,,,,,,,20,female,B,2020-05-21_06h53.11.279,Remembering_Displays,2020.1.2,MacIntel,60,9,0,0.99003,9,1,0.668385,0,7,7,17,1,Stimuli/testStimuliCube/6u_s_21_s.png,Stimuli/testStimuliCube/6u_d_21_s.png,1,1,,,,,,,,,s,3D
,,,,,,,20,female,B,2020-05-21_06h53.11.279,Remembering_Displays,2020.1.2,MacIntel,60,9,1,0.474415,1,1,0.93479,0,8,8,10,1,Stimuli/testStimuliCube/6u_s_24.png,Stimuli/testStimuliCube/6u_s_24.png,0,9,,,,,,,,,c,3D
,,,,,,,20,female,B,2020-05-21_06h53.11.279,Remembering_Displays,2020.1.2,MacIntel,60,9,1,0.594235,1,1,1.14212,0,9,9,22,1,Stimuli/testStimuliCube/6u_s_24_s.png,Stimuli/testStimuliCube/6u_s_24_s.png,0,9,,,,,,,,,s,3D
,,,,,,,20,female,B,2020-05-21_06h53.11.279,Remembering_Displays,2020.1.2,MacIntel,60,9,1,0.63125,9,1,0.600975,0,10,10,16,1,Stimuli/testStimuliCube/6u_s_21_s.png,Stimuli/testStimuliCube/6u_s_21_s.png,0,9,,,,,,,,,s,3D
,,,,,,,20,female,B,2020-05-21_06h53.11.279,Remembering_Displays,2020.1.2,MacIntel,60,9,1,0.53486,1,1,0.949655,0,11,11,2,1,Stimuli/testStimuliCube/6u_s_20.png,Stimuli/testStimuliCube/6u_s_20.png,0,9,,,,,,,,,c,3D
,,,,,,,20,female,B,2020-05-21_06h53.11.279,Remembering_Displays,2020.1.2,MacIntel,60,1,1,0.455295,9,1,0.618,0,12,12,3,1,Stimuli/testStimuliCube/6u_s_20.png,Stimuli/testStimuliCube/6u_d_20.png,1,1,,,,,,,,,c,3D
,,,,,,,20,female,B,2020-05-21_06h53.11.279,Remembering_Displays,2020.1.2,MacIntel,60,1,1,0.461335,1,1,0.34251,0,13,13,5,1,Stimuli/testStimuliCube/6u_s_21.png,Stimuli/testStimuliCube/6u_d_21.png,1,1,,,,,,,,,c,3D
,,,,,,,20,female,B,2020-05-21_06h53.11.279,Remembering_Displays,2020.1.2,MacIntel,60,9,1,0.914845,1,1,0.38392,0,14,14,14,1,Stimuli/testStimuliCube/6u_s_20_s.png,Stimuli/testStimuliCube/6u_s_20_s.png,0,9,,,,,,,,,s,3D
,,,,,,,20,female,B,2020-05-21_06h53.11.279,Remembering_Displays,2020.1.2,MacIntel,60,9,1,0.479055,9,1,0.51966,0,15,15,8,1,Stimuli/testStimuliCube/6u_s_23.png,Stimuli/testStimuliCube/6u_s_23.png,0,9,,,,,,,,,c,3D
,,,,,,,20,female,B,2020-05-21_06h53.11.279,Remembering_Displays,2020.1.2,MacIntel,60,1,1,0.61888,1,1,0.8511,0,16,16,23,1,Stimuli/testStimuliCube/6u_s_24_s.png,Stimuli/testStimuliCube/6u_d_24_s.png,1,1,,,,,,,,,s,3D
,,,,,,,20,female,B,2020-05-21_06h53.11.279,Remembering_Displays,2020.1.2,MacIntel,60,1,1,0.52404,1,1,0.651075,0,17,17,19,1,Stimuli/testStimuliCube/6u_s_22_s.png,Stimuli/testStimuliCube/6u_d_22_s.png,1,1,,,,,,,,,s,3D
,,,,,,,20,female,B,2020-05-21_06h53.11.279,Remembering_Displays,2020.1.2,MacIntel,60,1,0,0.51186,1,1,0.5129,0,18,18,20,1,Stimuli/testStimuliCube/6u_s_23_s.png,Stimuli/testStimuliCube/6u_s_23_s.png,0,9,,,,,,,,,s,3D
,,,,,,,20,female,B,2020-05-21_06h53.11.279,Remembering_Displays,2020.1.2,MacIntel,60,9,1,0.5082,9,1,0.618175,0,19,19,18,1,Stimuli/testStimuliCube/6u_s_22_s.png,Stimuli/testStimuliCube/6u_s_22_s.png,0,9,,,,,,,,,s,3D
,,,,,,,20,female,B,2020-05-21_06h53.11.279,Remembering_Displays,2020.1.2,MacIntel,60,1,1,0.5633,1,1,0.56817,0,20,20,13,1,Stimuli/testStimuliCube/6u_s_19_s.png,Stimuli/testStimuliCube/6u_d_19_s.png,1,1,,,,,,,,,s,3D
,,,,,,,20,female,B,2020-05-21_06h53.11.279,Remembering_Displays,2020.1.2,MacIntel,60,1,1,0.54583,9,1,0.82467,0,21,21,15,1,Stimuli/testStimuliCube/6u_s_20_s.png,Stimuli/testStimuliCube/6u_d_20_s.png,1,1,,,,,,,,,s,3D
,,,,,,,20,female,B,2020-05-21_06h53.11.279,Remembering_Displays,2020.1.2,MacIntel,60,1,1,0.47317,9,1,0.752685,0,22,22,11,1,Stimuli/testStimuliCube/6u_s_24.png,Stimuli/testStimuliCube/6u_d_24.png,1,1,,,,,,,,,c,3D
,,,,,,,20,female,B,2020-05-21_06h53.11.279,Remembering_Displays,2020.1.2,MacIntel,60,1,1,0.594585,9,1,0.601395,0,23,23,1,1,Stimuli/testStimuliCube/6u_s_19.png,Stimuli/testStimuliCube/6u_d_19.png,1,1,,,,,,,,,c,3D
,,,,,,,20,female,B,2020-05-21_06h53.11.279,Remembering_Displays,2020.1.2,MacIntel,60,,,,,,,,,,,,,,,,0,8,8,8,1,Stimuli/trialListCubes4.xlsx,Instructions/instr_19.png,Progress: 168 of 192 trials completed,,
,,,,,,,20,female,B,2020-05-21_06h53.11.279,Remembering_Displays,2020.1.2,MacIntel,60,1,1,0.48039,9,1,1.197935,0,0,0,11,1,Stimuli/testStimuliSquare/6u_s_6_2D.png,Stimuli/testStimuliSquare/6u_d_6_2D.png,1,1,,,,,,,,,c,2D
,,,,,,,20,female,B,2020-05-21_06h53.11.279,Remembering_Displays,2020.1.2,MacIntel,60,9,1,0.9143,9,1,0.616015,0,1,1,14,1,Stimuli/testStimuliSquare/6u_s_2_s_2D.png,Stimuli/testStimuliSquare/6u_s_2_s_2D.png,0,9,,,,,,,,,s,2D
,,,,,,,20,female,B,2020-05-21_06h53.11.279,Remembering_Displays,2020.1.2,MacIntel,60,1,1,0.481635,1,1,1.35301,0,2,2,5,1,Stimuli/testStimuliSquare/6u_s_3_2D.png,Stimuli/testStimuliSquare/6u_d_3_2D.png,1,1,,,,,,,,,c,2D
,,,,,,,20,female,B,2020-05-21_06h53.11.279,Remembering_Displays,2020.1.2,MacIntel,60,9,1,0.75582,1,1,0.401465,0,3,3,6,1,Stimuli/testStimuliSquare/6u_s_4_2D.png,Stimuli/testStimuliSquare/6u_s_4_2D.png,0,9,,,,,,,,,c,2D
,,,,,,,20,female,B,2020-05-21_06h53.11.279,Remembering_Displays,2020.1.2,MacIntel,60,9,0,0.676505,1,1,1.01679,0,4,4,7,1,Stimuli/testStimuliSquare/6u_s_4_2D.png,Stimuli/testStimuliSquare/6u_d_4_2D.png,1,1,,,,,,,,,c,2D
,,,,,,,20,female,B,2020-05-21_06h53.11.279,Remembering_Displays,2020.1.2,MacIntel,60,1,1,0.55774,1,1,0.63678,0,5,5,1,1,Stimuli/testStimuliSquare/6u_s_1_2D.png,Stimuli/testStimuliSquare/6u_d_1_2D.png,1,1,,,,,,,,,c,2D
,,,,,,,20,female,B,2020-05-21_06h53.11.279,Remembering_Displays,2020.1.2,MacIntel,60,9,1,0.815285,9,1,0.88603,0,6,6,20,1,Stimuli/testStimuliSquare/6u_s_5_s_2D.png,Stimuli/testStimuliSquare/6u_s_5_s_2D.png,0,9,,,,,,,,,s,2D
,,,,,,,20,female,B,2020-05-21_06h53.11.279,Remembering_Displays,2020.1.2,MacIntel,60,9,0,0.892825,9,1,1.034775,0,7,7,21,1,Stimuli/testStimuliSquare/6u_s_5_s_2D.png,Stimuli/testStimuliSquare/6u_d_5_s_2D.png,1,1,,,,,,,,,s,2D
,,,,,,,20,female,B,2020-05-21_06h53.11.279,Remembering_Displays,2020.1.2,MacIntel,60,1,1,0.498915,1,1,0.65199,0,8,8,17,1,Stimuli/testStimuliSquare/6u_s_3_s_2D.png,Stimuli/testStimuliSquare/6u_d_3_s_2D.png,1,1,,,,,,,,,s,2D
,,,,,,,20,female,B,2020-05-21_06h53.11.279,Remembering_Displays,2020.1.2,MacIntel,60,9,1,0.514585,1,1,0.427675,0,9,9,8,1,Stimuli/testStimuliSquare/6u_s_5_2D.png,Stimuli/testStimuliSquare/6u_s_5_2D.png,0,9,,,,,,,,,c,2D
,,,,,,,20,female,B,2020-05-21_06h53.11.279,Remembering_Displays,2020.1.2,MacIntel,60,9,1,0.50974,1,0,0.519065,0,10,10,22,1,Stimuli/testStimuliSquare/6u_s_6_s_2D.png,Stimuli/testStimuliSquare/6u_s_6_s_2D.png,0,9,,,,,,,,,s,2D
,,,,,,,20,female,B,2020-05-21_06h53.11.279,Remembering_Displays,2020.1.2,MacIntel,60,9,0,0.575885,9,1,0.706445,0,11,11,3,1,Stimuli/testStimuliSquare/6u_s_2_2D.png,Stimuli/testStimuliSquare/6u_d_2_2D.png,1,1,,,,,,,,,c,2D
,,,,,,,20,female,B,2020-05-21_06h53.11.279,Remembering_Displays,2020.1.2,MacIntel,60,9,1,0.98501,9,1,0.666435,0,12,12,16,1,Stimuli/testStimuliSquare/6u_s_3_s_2D.png,Stimuli/testStimuliSquare/6u_s_3_s_2D.png,0,9,,,,,,,,,s,2D
,,,,,,,20,female,B,2020-05-21_06h53.11.279,Remembering_Displays,2020.1.2,MacIntel,60,1,1,0.518715,9,1,0.50221,0,13,13,13,1,Stimuli/testStimuliSquare/6u_s_1_s_2D.png,Stimuli/testStimuliSquare/6u_d_1_s_2D.png,1,1,,,,,,,,,s,2D
,,,,,,,20,female,B,2020-05-21_06h53.11.279,Remembering_Displays,2020.1.2,MacIntel,60,9,1,0.49692,1,1,0.535915,0,14,14,10,1,Stimuli/testStimuliSquare/6u_s_6_2D.png,Stimuli/testStimuliSquare/6u_s_6_2D.png,0,9,,,,,,,,,c,2D
,,,,,,,20,female,B,2020-05-21_06h53.11.279,Remembering_Displays,2020.1.2,MacIntel,60,9,1,0.563135,1,1,0.40522,0,15,15,18,1,Stimuli/testStimuliSquare/6u_s_4_s_2D.png,Stimuli/testStimuliSquare/6u_s_4_s_2D.png,0,9,,,,,,,,,s,2D
,,,,,,,20,female,B,2020-05-21_06h53.11.279,Remembering_Displays,2020.1.2,MacIntel,60,1,1,0.54167,9,1,1.287255,0,16,16,19,1,Stimuli/testStimuliSquare/6u_s_4_s_2D.png,Stimuli/testStimuliSquare/6u_d_4_s_2D.png,1,1,,,,,,,,,s,2D
,,,,,,,20,female,B,2020-05-21_06h53.11.279,Remembering_Displays,2020.1.2,MacIntel,60,9,1,0.447635,9,1,0.83644,0,17,17,0,1,Stimuli/testStimuliSquare/6u_s_1_2D.png,Stimuli/testStimuliSquare/6u_s_1_2D.png,0,9,,,,,,,,,c,2D
,,,,,,,20,female,B,2020-05-21_06h53.11.279,Remembering_Displays,2020.1.2,MacIntel,60,9,1,0.77998,1,1,0.601755,0,18,18,12,1,Stimuli/testStimuliSquare/6u_s_1_s_2D.png,Stimuli/testStimuliSquare/6u_s_1_s_2D.png,0,9,,,,,,,,,s,2D
,,,,,,,20,female,B,2020-05-21_06h53.11.279,Remembering_Displays,2020.1.2,MacIntel,60,1,1,0.57642,9,1,0.753915,0,19,19,15,1,Stimuli/testStimuliSquare/6u_s_2_s_2D.png,Stimuli/testStimuliSquare/6u_d_2_s_2D.png,1,1,,,,,,,,,s,2D
,,,,,,,20,female,B,2020-05-21_06h53.11.279,Remembering_Displays,2020.1.2,MacIntel,60,9,1,0.567125,9,1,0.58542,0,20,20,4,1,Stimuli/testStimuliSquare/6u_s_3_2D.png,Stimuli/testStimuliSquare/6u_s_3_2D.png,0,9,,,,,,,,,c,2D
,,,,,,,20,female,B,2020-05-21_06h53.11.279,Remembering_Displays,2020.1.2,MacIntel,60,1,1,0.588575,9,0,0.669775,0,21,21,23,1,Stimuli/testStimuliSquare/6u_s_6_s_2D.png,Stimuli/testStimuliSquare/6u_d_6_s_2D.png,1,1,,,,,,,,,s,2D
,,,,,,,20,female,B,2020-05-21_06h53.11.279,Remembering_Displays,2020.1.2,MacIntel,60,9,1,0.499755,1,1,0.55222,0,22,22,2,1,Stimuli/testStimuliSquare/6u_s_2_2D.png,Stimuli/testStimuliSquare/6u_s_2_2D.png,0,9,,,,,,,,,c,2D
,,,,,,,20,female,B,2020-05-21_06h53.11.279,Remembering_Displays,2020.1.2,MacIntel,60,9,0,1.05377,9,1,0.568185,0,23,23,9,1,Stimuli/testStimuliSquare/6u_s_5_2D.png,Stimuli/testStimuliSquare/6u_d_5_2D.png,1,1,,,,,,,,,c,2D