instr_Loop.thisRepN,instr_Loop.thisTrialN,instr_Loop.thisN,instr_Loop.thisIndex,instr_Loop.ran,instructionImage,time,age,sex (female/male),order,date,expName,psychopyVersion,OS,frameRate,struc_judge_respond.keys,struc_judge_respond.corr,dual_respond.keys,dual_respond.corr,dual_respond.rt,trials.thisRepN,trials.thisTrialN,trials.thisN,trials.thisIndex,trials.ran,stim1,stim2,isAnyChange,corrAns,struc_judge_respond.rt,selectBlock.thisRepN,selectBlock.thisTrialN,selectBlock.thisN,selectBlock.thisIndex,selectBlock.ran,condsFile,condsImage,remaining,connected,dimensionality
0,0,0,0,1,Instructions/consent.png,3,19,male,B,2020-05-21_07h25.05.484,Remembering_Displays,2020.1.2,Win32,60,,,,,,,,,,,,,,,,,,,,,,,,,
0,1,1,1,1,Instructions/instr_1.png,5,19,male,B,2020-05-21_07h25.05.484,Remembering_Displays,2020.1.2,Win32,60,,,,,,,,,,,,,,,,,,,,,,,,,
0,2,2,2,1,Instructions/instr_2.png,3,19,male,B,2020-05-21_07h25.05.484,Remembering_Displays,2020.1.2,Win32,60,,,,,,,,,,,,,,,,,,,,,,,,,
0,3,3,3,1,Instructions/instr_3.png,5,19,male,B,2020-05-21_07h25.05.484,Remembering_Displays,2020.1.2,Win32,60,,,,,,,,,,,,,,,,,,,,,,,,,
0,4,4,4,1,Instructions/instr_4.png,1,19,male,B,2020-05-21_07h25.05.484,Remembering_Displays,2020.1.2,Win32,60,,,,,,,,,,,,,,,,,,,,,,,,,
0,5,5,5,1,Instructions/instr_5.png,1,19,male,B,2020-05-21_07h25.05.484,Remembering_Displays,2020.1.2,Win32,60,,,,,,,,,,,,,,,,,,,,,,,,,
0,6,6,6,1,Instructions/instr_6.png,1,19,male,B,2020-05-21_07h25.05.484,Remembering_Displays,2020.1.2,Win32,60,,,,,,,,,,,,,,,,,,,,,,,,,
0,7,7,7,1,Instructions/instr_7.png,1,19,male,B,2020-05-21_07h25.05.484,Remembering_Displays,2020.1.2,Win32,60,,,,,,,,,,,,,,,,,,,,,,,,,
0,8,8,8,1,Instructions/instr_8.png,3,19,male,B,2020-05-21_07h25.05.484,Remembering_Displays,2020.1.2,Win32,60,,,,,,,,,,,,,,,,,,,,,,,,,
0,9,9,9,1,Instructions/instr_9.png,3,19,male,B,2020-05-21_07h25.05.484,Remembering_Displays,2020.1.2,Win32,60,,,,,,,,,,,,,,,,,,,,,,,,,
0,10,10,10,1,Instructions/instr_10.png,3,19,male,B,2020-05-21_07h25.05.484,Remembering_Displays,2020.1.2,Win32,60,,,,,,,,,,,,,,,,,,,,,,,,,
0,11,11,11,1,Instructions/instr_11.png,3,19,male,B,2020-05-21_07h25.05.484,Remembering_Displays,2020.1.2,Win32,60,,,,,,,,,,,,,,,,,,,,,,,,,
0,12,12,12,1,Instructions/instr_12.png,3,19,male,B,2020-05-21_07h25.05.484,Remembering_Displays,2020.1.2,Win32,60,,,,,,,,,,,,,,,,,,,,,,,,,
0,13,13,13,1,Instructions/instr_13.png,3,19,male,B,2020-05-21_07h25.05.484,Remembering_Displays,2020.1.2,Win32,60,,,,,,,,,,,,,,,,,,,,,,,,,
0,14,14,14,1,Instructions/instr_14.png,3,19,male,B,2020-05-21_07h25.05.484,Remembering_Displays,2020.1.2,Win32,60,,,,,,,,,,,,,,,,,,,,,,,,,
0,15,15,15,1,Instructions/instr_15.png,3,19,male,B,2020-05-21_07h25.05.484,Remembering_Displays,2020.1.2,Win32,60,,,,,,,,,,,,,,,,,,,,,,,,,
0,16,16,16,1,Instructions/instr_16.png,5,19,male,B,2020-05-21_07h25.05.484,Remembering_Displays,2020.1.2,Win32,60,,,,,,,,,,,,,,,,,,,,,,,,,
,,,,,,,19,male,B,2020-05-21_07h25.05.484,Remembering_Displays,2020.1.2,Win32,60,,0,9,0,9.576835,0,0,0,3,1,Stimuli/practiceStimuliCube/practice4_s.png,Stimuli/practiceStimuliCube/practice4_d.png,1,1,,,,,,,,,,,
,,,,,,,19,male,B,2020-05-21_07h25.05.484,Remembering_Displays,2020.1.2,Win32,60,9,0,9,0,1.709065,0,1,1,4,1,Stimuli/practiceStimuliCube/practice1_s.png,Stimuli/practiceStimuliCube/practice1_d.png,1,1,1.374485,,,,,,,,,,
,,,,,,,19,male,B,2020-05-21_07h25.05.484,Remembering_Displays,2020.1.2,Win32,60,1,0,1,0,1.603605,0,2,2,2,1,Stimuli/practiceStimuliCube/practice3_s.png,Stimuli/practiceStimuliCube/practice3_s.png,0,9,0.99695,,,,,,,,,,
,,,,,,,19,male,B,2020-05-21_07h25.05.484,Remembering_Displays,2020.1.2,Win32,60,1,0,9,0,2.28732,0,3,3,7,1,Stimuli/practiceStimuliCube/practice4_s.png,Stimuli/practiceStimuliCube/practice4_s.png,0,9,0.763765,,,,,,,,,,
,,,,,,,19,male,B,2020-05-21_07h25.05.484,Remembering_Displays,2020.1.2,Win32,60,,0,1,0,1.305105,0,4,4,1,1,Stimuli/practiceStimuliCube/practice2_s.png,Stimuli/practiceStimuliCube/practice2_d.png,1,1,,,,,,,,,,,
,,,,,,,19,male,B,2020-05-21_07h25.05.484,Remembering_Displays,2020.1.2,Win32,60,1,0,9,0,1.418815,0,5,5,0,1,Stimuli/practiceStimuliCube/practice1_s.png,Stimuli/practiceStimuliCube/practice1_s.png,0,9,0.89577,,,,,,,,,,
,,,,,,,19,male,B,2020-05-21_07h25.05.484,Remembering_Displays,2020.1.2,Win32,60,1,1,9,0,0.744355,0,6,6,6,1,Stimuli/practiceStimuliCube/practice3_s.png,Stimuli/practiceStimuliCube/practice3_d.png,1,1,0.60452,,,,,,,,,,
,,,,,,,19,male,B,2020-05-21_07h25.05.484,Remembering_Displays,2020.1.2,Win32,60,1,0,9,1,0.28519,0,7,7,5,1,Stimuli/practiceStimuliCube/practice2_s.png,Stimuli/practiceStimuliCube/practice2_s.png,0,9,0.296,,,,,,,,,,
,,,,,,,19,male,B,2020-05-21_07h25.05.484,Remembering_Displays,2020.1.2,Win32,60,,,,,,,,,,,,,,,,0,0,0,0,1,Stimuli/practiceListCubes.xlsx,Instructions/instr_practice_B.png,Practice trials completed,,
,,,,,,,19,male,B,2020-05-21_07h25.05.484,Remembering_Displays,2020.1.2,Win32,60,1,0,9,0,0.36047,0,0,0,20,1,Stimuli/testStimuliCube/6u_s_5_s.png,Stimuli/testStimuliCube/6u_s_5_s.png,0,9,0.434225,,,,,,,,,s,3D
,,,,,,,19,male,B,2020-05-21_07h25.05.484,Remembering_Displays,2020.1.2,Win32,60,9,0,1,0,0.98595,0,1,1,9,1,Stimuli/testStimuliCube/6u_s_5.png,Stimuli/testStimuliCube/6u_d_5.png,1,1,0.30897,,,,,,,,,c,3D
,,,,,,,19,male,B,2020-05-21_07h25.05.484,Remembering_Displays,2020.1.2,Win32,60,1,1,1,0,0.46955,0,2,2,15,1,Stimuli/testStimuliCube/6u_s_2_s.png,Stimuli/testStimuliCube/6u_d_2_s.png,1,1,0.374865,,,,,,,,,s,3D
,,,,,,,19,male,B,2020-05-21_07h25.05.484,Remembering_Displays,2020.1.2,Win32,60,1,0,9,1,1.68737,0,3,3,6,1,Stimuli/testStimuliCube/6u_s_4.png,Stimuli/testStimuliCube/6u_s_4.png,0,9,0.440555,,,,,,,,,c,3D
,,,,,,,19,male,B,2020-05-21_07h25.05.484,Remembering_Displays,2020.1.2,Win32,60,9,0,9,1,0.869695,0,4,4,11,1,Stimuli/testStimuliCube/6u_s_6.png,Stimuli/testStimuliCube/6u_d_6.png,1,1,0.356855,,,,,,,,,c,3D
,,,,,,,19,male,B,2020-05-21_07h25.05.484,Remembering_Displays,2020.1.2,Win32,60,1,1,9,0,1.610115,0,5,5,5,1,Stimuli/testStimuliCube/6u_s_3.png,Stimuli/testStimuliCube/6u_d_3.png,1,1,0.643045,,,,,,,,,c,3D
,,,,,,,19,male,B,2020-05-21_07h25.05.484,Remembering_Displays,2020.1.2,Win32,60,1,0,9,1,2.20222,0,6,6,14,1,Stimuli/testStimuliCube/6u_s_2_s.png,Stimuli/testStimuliCube/6u_s_2_s.png,0,9,0.50955,,,,,,,,,s,3D
,,,,,,,19,male,B,2020-05-21_07h25.05.484,Remembering_Displays,2020.1.2,Win32,60,9,1,9,1,0.869635,0,7,7,12,1,Stimuli/testStimuliCube/6u_s_1_s.png,Stimuli/testStimuliCube/6u_s_1_s.png,0,9,0.33749,,,,,,,,,s,3D
,,,,,,,19,male,B,2020-05-21_07h25.05.484,Remembering_Displays,2020.1.2,Win32,60,9,1,9,0,0.55812,0,8,8,4,1,Stimuli/testStimuliCube/6u_s_3.png,Stimuli/testStimuliCube/6u_s_3.png,0,9,0.29074,,,,,,,,,c,3D
,,,,,,,19,male,B,2020-05-21_07h25.05.484,Remembering_Displays,2020.1.2,Win32,60,9,1,1,1,1.889395,0,9,9,18,1,Stimuli/testStimuliCube/6u_s_4_s.png,Stimuli/testStimuliCube/6u_s_4_s.png,0,9,0.30441,,,,,,,,,s,3D
,,,,,,,19,male,B,2020-05-21_07h25.05.484,Remembering_Displays,2020.1.2,Win32,60,1,0,9,0,1.22034,0,10,10,2,1,Stimuli/testStimuliCube/6u_s_2.png,Stimuli/testStimuliCube/6u_s_2.png,0,9,0.326215,,,,,,,,,c,3D
,,,,,,,19,male,B,2020-05-21_07h25.05.484,Remembering_Displays,2020.1.2,Win32,60,1,1,9,0,1.76251,0,11,11,3,1,Stimuli/testStimuliCube/6u_s_2.png,Stimuli/testStimuliCube/6u_d_2.png,1,1,0.392505,,,,,,,,,c,3D
,,,,,,,19,male,B,2020-05-21_07h25.05.484,Remembering_Displays,2020.1.2,Win32,60,1,0,1,1,1.19056,0,12,12,8,1,Stimuli/testStimuliCube/6u_s_5.png,Stimuli/testStimuliCube/6u_s_5.png,0,9,0.47036,,,,,,,,,c,3D
,,,,,,,19,male,B,2020-05-21_07h25.05.484,Remembering_Displays,2020.1.2,Win32,60,9,1,1,1,1.60401,0,13,13,10,1,Stimuli/testStimuliCube/6u_s_6.png,Stimuli/testStimuliCube/6u_s_6.png,0,9,0.312465,,,,,,,,,c,3D
,,,,,,,19,male,B,2020-05-21_07h25.05.484,Remembering_Displays,2020.1.2,Win32,60,1,0,1,1,1.01767,0,14,14,0,1,Stimuli/testStimuliCube/6u_s_1.png,Stimuli/testStimuliCube/6u_s_1.png,0,9,0.38239,,,,,,,,,c,3D
,,,,,,,19,male,B,2020-05-21_07h25.05.484,Remembering_Displays,2020.1.2,Win32,60,9,0,9,1,2.08771,0,15,15,19,1,Stimuli/testStimuliCube/6u_s_4_s.png,Stimuli/testStimuliCube/6u_d_4_s.png,1,1,0.276285,,,,,,,,,s,3D
,,,,,,,19,male,B,2020-05-21_07h25.05.484,Remembering_Displays,2020.1.2,Win32,60,1,1,9,1,1.63743,0,16,16,23,1,Stimuli/testStimuliCube/6u_s_6_s.png,Stimuli/testStimuliCube/6u_d_6_s.png,1,1,0.314295,,,,,,,,,s,3D
,,,,,,,19,male,B,2020-05-21_07h25.05.484,Remembering_Displays,2020.1.2,Win32,60,1,1,9,1,1.587025,0,17,17,21,1,Stimuli/testStimuliCube/6u_s_5_s.png,Stimuli/testStimuliCube/6u_d_5_s.png,1,1,0.582965,,,,,,,,,s,3D
,,,,,,,19,male,B,2020-05-21_07h25.05.484,Remembering_Displays,2020.1.2,Win32,60,1,1,1,1,1.520755,0,18,18,7,1,Stimuli/testStimuliCube/6u_s_4.png,Stimuli/testStimuliCube/6u_d_4.png,1,1,0.66093,,,,,,,,,c,3D
,,,,,,,19,male,B,2020-05-21_07h25.05.484,Remembering_Displays,2020.1.2,Win32,60,9,0,1,1,2.009195,0,19,19,13,1,Stimuli/testStimuliCube/6u_s_1_s.png,Stimuli/testStimuliCube/6u_d_1_s.png,1,1,0.322625,,,,,,,,,s,3D
,,,,,,,19,male,B,2020-05-21_07h25.05.484,Remembering_Displays,2020.1.2,Win32,60,9,0,9,1,2.027095,0,20,20,17,1,Stimuli/testStimuliCube/6u_s_3_s.png,Stimuli/testStimuliCube/6u_d_3_s.png,1,1,0.55774,,,,,,,,,s,3D
,,,,,,,19,male,B,2020-05-21_07h25.05.484,Remembering_Displays,2020.1.2,Win32,60,1,0,1,1,0.90164,0,21,21,22,1,Stimuli/testStimuliCube/6u_s_6_s.png,Stimuli/testStimuliCube/6u_s_6_s.png,0,9,0.350535,,,,,,,,,s,3D
,,,,,,,19,male,B,2020-05-21_07h25.05.484,Remembering_Displays,2020.1.2,Win32,60,9,0,9,0,6.35945,0,22,22,1,1,Stimuli/testStimuliCube/6u_s_1.png,Stimuli/testStimuliCube/6u_d_1.png,1,1,0.740895,,,,,,,,,c,3D
,,,,,,,19,male,B,2020-05-21_07h25.05.484,Remembering_Displays,2020.1.2,Win32,60,1,0,1,1,2.41827,0,23,23,16,1,Stimuli/testStimuliCube/6u_s_3_s.png,Stimuli/testStimuliCube/6u_s_3_s.png,0,9,0.662115,,,,,,,,,s,3D
,,,,,,,19,male,B,2020-05-21_07h25.05.484,Remembering_Displays,2020.1.2,Win32,60,,,,,,,,,,,,,,,,0,1,1,1,1,Stimuli/trialListCubes1.xlsx,Instructions/instr_19.png,Progress: 24 of 192 trials completed,,
,,,,,,,19,male,B,2020-05-21_07h25.05.484,Remembering_Displays,2020.1.2,Win32,60,9,0,9,1,1.407795,0,0,0,1,1,Stimuli/practiceStimuliSquare/practice2_s.png,Stimuli/practiceStimuliSquare/practice2_d.png,1,1,0.454275,,,,,,,,,,
,,,,,,,19,male,B,2020-05-21_07h25.05.484,Remembering_Displays,2020.1.2,Win32,60,1,0,9,1,1.176935,0,1,1,0,1,Stimuli/practiceStimuliSquare/practice1_s.png,Stimuli/practiceStimuliSquare/practice1_s.png,0,9,0.461455,,,,,,,,,,
,,,,,,,19,male,B,2020-05-21_07h25.05.484,Remembering_Displays,2020.1.2,Win32,60,1,1,9,1,1.43738,0,2,2,4,1,Stimuli/practiceStimuliSquare/practice1_s.png,Stimuli/practiceStimuliSquare/practice1_d.png,1,1,0.626515,,,,,,,,,,
,,,,,,,19,male,B,2020-05-21_07h25.05.484,Remembering_Displays,2020.1.2,Win32,60,9,1,1,1,0.73802,0,3,3,7,1,Stimuli/practiceStimuliSquare/practice4_s.png,Stimuli/practiceStimuliSquare/practice4_s.png,0,9,0.51355,,,,,,,,,,
,,,,,,,19,male,B,2020-05-21_07h25.05.484,Remembering_Displays,2020.1.2,Win32,60,1,1,9,1,1.08692,0,4,4,3,1,Stimuli/practiceStimuliSquare/practice4_s.png,Stimuli/practiceStimuliSquare/practice4_d.png,1,1,0.59742,,,,,,,,,,
,,,,,,,19,male,B,2020-05-21_07h25.05.484,Remembering_Displays,2020.1.2,Win32,60,9,1,1,1,1.125585,0,5,5,5,1,Stimuli/practiceStimuliSquare/practice2_s.png,Stimuli/practiceStimuliSquare/practice2_s.png,0,9,0.59004,,,,,,,,,,
,,,,,,,19,male,B,2020-05-21_07h25.05.484,Remembering_Displays,2020.1.2,Win32,60,9,1,9,1,1.219225,0,6,6,2,1,Stimuli/practiceStimuliSquare/practice3_s.png,Stimuli/practiceStimuliSquare/practice3_s.png,0,9,0.77303,,,,,,,,,,
,,,,,,,19,male,B,2020-05-21_07h25.05.484,Remembering_Displays,2020.1.2,Win32,60,1,1,1,1,1.120725,0,7,7,6,1,Stimuli/practiceStimuliSquare/practice3_s.png,Stimuli/practiceStimuliSquare/practice3_d.png,1,1,0.619855,,,,,,,,,,
,,,,,,,19,male,B,2020-05-21_07h25.05.484,Remembering_Displays,2020.1.2,Win32,60,,,,,,,,,,,,,,,,0,2,2,2,1,Stimuli/practiceListSquares.xlsx,Instructions/instr_practice_A.png,Practice trials completed,,
,,,,,,,19,male,B,2020-05-21_07h25.05.484,Remembering_Displays,2020.1.2,Win32,60,9,1,1,1,1.23813,0,0,0,8,1,Stimuli/testStimuliSquare/6u_s_23_2D.png,Stimuli/testStimuliSquare/6u_s_23_2D.png,0,9,0.558435,,,,,,,,,c,2D
,,,,,,,19,male,B,2020-05-21_07h25.05.484,Remembering_Displays,2020.1.2,Win32,60,1,0,9,1,0.919465,0,1,1,16,1,Stimuli/testStimuliSquare/6u_s_21_s_2D.png,Stimuli/testStimuliSquare/6u_s_21_s_2D.png,0,9,0.640095,,,,,,,,,s,2D
,,,,,,,19,male,B,2020-05-21_07h25.05.484,Remembering_Displays,2020.1.2,Win32,60,1,1,1,0,0.186035,0,2,2,9,1,Stimuli/testStimuliSquare/6u_s_23_2D.png,Stimuli/testStimuliSquare/6u_d_23_2D.png,1,1,0.467545,,,,,,,,,c,2D
,,,,,,,19,male,B,2020-05-21_07h25.05.484,Remembering_Displays,2020.1.2,Win32,60,9,1,1,1,0.958875,0,3,3,10,1,Stimuli/testStimuliSquare/6u_s_24_2D.png,Stimuli/testStimuliSquare/6u_s_24_2D.png,0,9,0.68419,,,,,,,,,c,2D
,,,,,,,19,male,B,2020-05-21_07h25.05.484,Remembering_Displays,2020.1.2,Win32,60,9,1,9,1,1.00556,0,4,4,12,1,Stimuli/testStimuliSquare/6u_s_19_s_2D.png,Stimuli/testStimuliSquare/6u_s_19_s_2D.png,0,9,0.53876,,,,,,,,,s,2D
,,,,,,,19,male,B,2020-05-21_07h25.05.484,Remembering_Displays,2020.1.2,Win32,60,9,1,9,1,0.401395,0,5,5,0,1,Stimuli/testStimuliSquare/6u_s_19_2D.png,Stimuli/testStimuliSquare/6u_s_19_2D.png,0,9,0.510555,,,,,,,,,c,2D
,,,,,,,19,male,B,2020-05-21_07h25.05.484,Remembering_Displays,2020.1.2,Win32,60,9,0,9,1,1.071795,0,6,6,23,1,Stimuli/testStimuliSquare/6u_s_24_s_2D.png,Stimuli/testStimuliSquare/6u_d_24_s_2D.png,1,1,0.72637,,,,,,,,,s,2D
,,,,,,,19,male,B,2020-05-21_07h25.05.484,Remembering_Displays,2020.1.2,Win32,60,1,1,1,1,1.34169,0,7,7,15,1,Stimuli/testStimuliSquare/6u_s_20_s_2D.png,Stimuli/testStimuliSquare/6u_d_20_s_2D.png,1,1,0.61668,,,,,,,,,s,2D
,,,,,,,19,male,B,2020-05-21_07h25.05.484,Remembering_Displays,2020.1.2,Win32,60,1,1,9,1,1.40122,0,8,8,7,1,Stimuli/testStimuliSquare/6u_s_22_2D.png,Stimuli/testStimuliSquare/6u_d_22_2D.png,1,1,0.448495,,,,,,,,,c,2D
,,,,,,,19,male,B,2020-05-21_07h25.05.484,Remembering_Displays,2020.1.2,Win32,60,9,1,1,1,0.648275,0,9,9,6,1,Stimuli/testStimuliSquare/6u_s_22_2D.png,Stimuli/testStimuliSquare/6u_s_22_2D.png,0,9,0.818695,,,,,,,,,c,2D
,,,,,,,19,male,B,2020-05-21_07h25.05.484,Remembering_Displays,2020.1.2,Win32,60,1,1,9,1,1.435475,0,10,10,3,1,Stimuli/testStimuliSquare/6u_s_20_2D.png,Stimuli/testStimuliSquare/6u_d_20_2D.png,1,1,0.49341,,,,,,,,,c,2D
,,,,,,,19,male,B,2020-05-21_07h25.05.484,Remembering_Displays,2020.1.2,Win32,60,1,1,9,1,0.868955,0,11,11,11,1,Stimuli/testStimuliSquare/6u_s_24_2D.png,Stimuli/testStimuliSquare/6u_d_24_2D.png,1,1,0.496585,,,,,,,,,c,2D
,,,,,,,19,male,B,2020-05-21_07h25.05.484,Remembering_Displays,2020.1.2,Win32,60,9,0,9,1,0.76746,0,12,12,1,1,Stimuli/testStimuliSquare/6u_s_19_2D.png,Stimuli/testStimuliSquare/6u_d_19_2D.png,1,1,0.60425,,,,,,,,,c,2D
,,,,,,,19,male,B,2020-05-21_07h25.05.484,Remembering_Displays,2020.1.2,Win32,60,9,1,9,0,0.568795,0,13,13,18,1,Stimuli/testStimuliSquare/6u_s_22_s_2D.png,Stimuli/testStimuliSquare/6u_s_22_s_2D.png,0,9,0.510515,,,,,,,,,s,2D
,,,,,,,19,male,B,2020-05-21_07h25.05.484,Remembering_Displays,2020.1.2,Win32,60,1,1,1,1,1.66193,0,14,14,17,1,Stimuli/testStimuliSquare/6u_s_21_s_2D.png,Stimuli/testStimuliSquare/6u_d_21_s_2D.png,1,1,0.44513,,,,,,,,,s,2D
,,,,,,,19,male,B,2020-05-21_07h25.05.484,Remembering_Displays,2020.1.2,Win32,60,1,1,1,0,3.43875,0,15,15,19,1,Stimuli/testStimuliSquare/6u_s_22_s_2D.png,Stimuli/testStimuliSquare/6u_d_22_s_2D.png,1,1,0.476765,,,,,,,,,s,2D
,,,,,,,19,male,B,2020-05-21_07h25.05.484,Remembering_Displays,2020.1.2,Win32,60,1,1,9,1,0.706515,0,16,16,5,1,Stimuli/testStimuliSquare/6u_s_21_2D.png,Stimuli/testStimuliSquare/6u_d_21_2D.png,1,1,0.43769,,,,,,,,,c,2D
,,,,,,,19,male,B,2020-05-21_07h25.05.484,Remembering_Displays,2020.1.2,Win32,60,9,1,9,1,0.79004,0,17,17,22,1,Stimuli/testStimuliSquare/6u_s_24_s_2D.png,Stimuli/testStimuliSquare/6u_s_24_s_2D.png,0,9,0.494985,,,,,,,,,s,2D
,,,,,,,19,male,B,2020-05-21_07h25.05.484,Remembering_Displays,2020.1.2,Win32,60,1,0,9,1,0.82183,0,18,18,2,1,Stimuli/testStimuliSquare/6u_s_20_2D.png,Stimuli/testStimuliSquare/6u_s_20_2D.png,0,9,0.49534,,,,,,,,,c,2D
,,,,,,,19,male,B,2020-05-21_07h25.05.484,Remembering_Displays,2020.1.2,Win32,60,9,1,9,1,0.52034,0,19,19,4,1,Stimuli/testStimuliSquare/6u_s_21_2D.png,Stimuli/testStimuliSquare/6u_s_21_2D.png,0,9,0.44255,,,,,,,,,c,2D
,,,,,,,19,male,B,2020-05-21_07h25.05.484,Remembering_Displays,2020.1.2,Win32,60,1,1,9,0,0.728075,0,20,20,13,1,Stimuli/testStimuliSquare/6u_s_19_s_2D.png,Stimuli/testStimuliSquare/6u_d_19_s_2D.png,1,1,0.51697,,,,,,,,,s,2D
,,,,,,,19,male,B,2020-05-21_07h25.05.484,Remembering_Displays,2020.1.2,Win32,60,9,1,1,0,1.537975,0,21,21,14,1,Stimuli/testStimuliSquare/6u_s_20_s_2D.png,Stimuli/testStimuliSquare/6u_s_20_s_2D.png,0,9,0.42697,,,,,,,,,s,2D
,,,,,,,19,male,B,2020-05-21_07h25.05.484,Remembering_Displays,2020.1.2,Win32,60,9,1,9,1,1.32494,0,22,22,20,1,Stimuli/testStimuliSquare/6u_s_23_s_2D.png,Stimuli/testStimuliSquare/6u_s_23_s_2D.png,0,9,0.5788,,,,,,,,,s,2D
,,,,,,,19,male,B,2020-05-21_07h25.05.484,Remembering_Displays,2020.1.2,Win32,60,1,1,9,1,1.085515,0,23,23,21,1,Stimuli/testStimuliSquare/6u_s_23_s_2D.png,Stimuli/testStimuliSquare/6u_d_23_s_2D.png,1,1,0.62187,,,,,,,,,s,2D
,,,,,,,19,male,B,2020-05-21_07h25.05.484,Remembering_Displays,2020.1.2,Win32,60,,,,,,,,,,,,,,,,0,3,3,3,1,Stimuli/trialListSquares4.xlsx,Instructions/instr_18.png,Progress: 48 of 192 trials completed,,
,,,,,,,19,male,B,2020-05-21_07h25.05.484,Remembering_Displays,2020.1.2,Win32,60,1,0,9,1,0.434425,0,0,0,16,1,Stimuli/testStimuliCube/6u_s_9_s.png,Stimuli/testStimuliCube/6u_s_9_s.png,0,9,0.40947,,,,,,,,,s,3D
,,,,,,,19,male,B,2020-05-21_07h25.05.484,Remembering_Displays,2020.1.2,Win32,60,9,0,9,1,0.690085,0,1,1,13,1,Stimuli/testStimuliCube/6u_s_7_s.png,Stimuli/testStimuliCube/6u_d_7_s.png,1,1,0.8229,,,,,,,,,s,3D
,,,,,,,19,male,B,2020-05-21_07h25.05.484,Remembering_Displays,2020.1.2,Win32,60,1,1,1,1,4.18947,0,2,2,1,1,Stimuli/testStimuliCube/6u_s_7.png,Stimuli/testStimuliCube/6u_d_7.png,1,1,0.66027,,,,,,,,,c,3D
,,,,,,,19,male,B,2020-05-21_07h25.05.484,Remembering_Displays,2020.1.2,Win32,60,9,0,9,0,1.67405,0,3,3,11,1,Stimuli/testStimuliCube/6u_s_12.png,Stimuli/testStimuliCube/6u_d_12.png,1,1,0.644855,,,,,,,,,c,3D
,,,,,,,19,male,B,2020-05-21_07h25.05.484,Remembering_Displays,2020.1.2,Win32,60,9,1,1,1,1.40134,0,4,4,0,1,Stimuli/testStimuliCube/6u_s_7.png,Stimuli/testStimuliCube/6u_s_7.png,0,9,0.5466,,,,,,,,,c,3D
,,,,,,,19,male,B,2020-05-21_07h25.05.484,Remembering_Displays,2020.1.2,Win32,60,9,0,9,1,1.538245,0,5,5,19,1,Stimuli/testStimuliCube/6u_s_10_s.png,Stimuli/testStimuliCube/6u_d_10_s.png,1,1,0.51847,,,,,,,,,s,3D
,,,,,,,19,male,B,2020-05-21_07h25.05.484,Remembering_Displays,2020.1.2,Win32,60,9,1,9,1,0.50775,0,6,6,2,1,Stimuli/testStimuliCube/6u_s_8.png,Stimuli/testStimuliCube/6u_s_8.png,0,9,0.454325,,,,,,,,,c,3D
,,,,,,,19,male,B,2020-05-21_07h25.05.484,Remembering_Displays,2020.1.2,Win32,60,9,0,9,1,0.606185,0,7,7,5,1,Stimuli/testStimuliCube/6u_s_9.png,Stimuli/testStimuliCube/6u_d_9.png,1,1,0.475665,,,,,,,,,c,3D
,,,,,,,19,male,B,2020-05-21_07h25.05.484,Remembering_Displays,2020.1.2,Win32,60,9,0,9,1,0.836025,0,8,8,3,1,Stimuli/testStimuliCube/6u_s_8.png,Stimuli/testStimuliCube/6u_d_8.png,1,1,0.356855,,,,,,,,,c,3D
,,,,,,,19,male,B,2020-05-21_07h25.05.484,Remembering_Displays,2020.1.2,Win32,60,9,1,9,0,1.56222,0,9,9,20,1,Stimuli/testStimuliCube/6u_s_11_s.png,Stimuli/testStimuliCube/6u_s_11_s.png,0,9,0.484575,,,,,,,,,s,3D
,,,,,,,19,male,B,2020-05-21_07h25.05.484,Remembering_Displays,2020.1.2,Win32,60,9,1,9,1,1.091115,0,10,10,10,1,Stimuli/testStimuliCube/6u_s_12.png,Stimuli/testStimuliCube/6u_s_12.png,0,9,1.08336,,,,,,,,,c,3D
,,,,,,,19,male,B,2020-05-21_07h25.05.484,Remembering_Displays,2020.1.2,Win32,60,9,0,9,1,1.39292,0,11,11,15,1,Stimuli/testStimuliCube/6u_s_8_s.png,Stimuli/testStimuliCube/6u_d_8_s.png,1,1,0.37568,,,,,,,,,s,3D
,,,,,,,19,male,B,2020-05-21_07h25.05.484,Remembering_Displays,2020.1.2,Win32,60,9,0,9,1,1.075185,0,12,12,23,1,Stimuli/testStimuliCube/6u_s_12_s.png,Stimuli/testStimuliCube/6u_d_12_s.png,1,1,0.484935,,,,,,,,,s,3D
,,,,,,,19,male,B,2020-05-21_07h25.05.484,Remembering_Displays,2020.1.2,Win32,60,9,1,9,1,0.83625,0,13,13,22,1,Stimuli/testStimuliCube/6u_s_12_s.png,Stimuli/testStimuliCube/6u_s_12_s.png,0,9,0.398615,,,,,,,,,s,3D
,,,,,,,19,male,B,2020-05-21_07h25.05.484,Remembering_Displays,2020.1.2,Win32,60,9,1,9,1,0.673085,0,14,14,8,1,Stimuli/testStimuliCube/6u_s_11.png,Stimuli/testStimuliCube/6u_s_11.png,0,9,0.43198,,,,,,,,,c,3D
,,,,,,,19,male,B,2020-05-21_07h25.05.484,Remembering_Displays,2020.1.2,Win32,60,9,1,1,1,0.934535,0,15,15,14,1,Stimuli/testStimuliCube/6u_s_8_s.png,Stimuli/testStimuliCube/6u_s_8_s.png,0,9,0.44733,,,,,,,,,s,3D
,,,,,,,19,male,B,2020-05-21_07h25.05.484,Remembering_Displays,2020.1.2,Win32,60,1,1,9,1,0.9769,0,16,16,17,1,Stimuli/testStimuliCube/6u_s_9_s.png,Stimuli/testStimuliCube/6u_d_9_s.png,1,1,0.572085,,,,,,,,,s,3D
,,,,,,,19,male,B,2020-05-21_07h25.05.484,Remembering_Displays,2020.1.2,Win32,60,9,1,9,1,0.804875,0,17,17,18,1,Stimuli/testStimuliCube/6u_s_10_s.png,Stimuli/testStimuliCube/6u_s_10_s.png,0,9,0.412995,,,,,,,,,s,3D
,,,,,,,19,male,B,2020-05-21_07h25.05.484,Remembering_Displays,2020.1.2,Win32,60,9,1,1,1,0.836375,0,18,18,6,1,Stimuli/testStimuliCube/6u_s_10.png,Stimuli/testStimuliCube/6u_s_10.png,0,9,0.489585,,,,,,,,,c,3D
,,,,,,,19,male,B,2020-05-21_07h25.05.484,Remembering_Displays,2020.1.2,Win32,60,9,0,9,1,0.66908,0,19,19,7,1,Stimuli/testStimuliCube/6u_s_10.png,Stimuli/testStimuliCube/6u_d_10.png,1,1,0.69743,,,,,,,,,c,3D
,,,,,,,19,male,B,2020-05-21_07h25.05.484,Remembering_Displays,2020.1.2,Win32,60,9,0,9,1,0.138455,0,20,20,9,1,Stimuli/testStimuliCube/6u_s_11.png,Stimuli/testStimuliCube/6u_d_11.png,1,1,0.34565,,,,,,,,,c,3D
,,,,,,,19,male,B,2020-05-21_07h25.05.484,Remembering_Displays,2020.1.2,Win32,60,9,0,9,1,0.2525,0,21,21,21,1,Stimuli/testStimuliCube/6u_s_11_s.png,Stimuli/testStimuliCube/6u_d_11_s.png,1,1,0.356445,,,,,,,,,s,3D
,,,,,,,19,male,B,2020-05-21_07h25.05.484,Remembering_Displays,2020.1.2,Win32,60,9,1,9,1,0.40523,0,22,22,12,1,Stimuli/testStimuliCube/6u_s_7_s.png,Stimuli/testStimuliCube/6u_s_7_s.png,0,9,0.36731,,,,,,,,,s,3D
,,,,,,,19,male,B,2020-05-21_07h25.05.484,Remembering_Displays,2020.1.2,Win32,60,9,1,9,1,0.66038,0,23,23,4,1,Stimuli/testStimuliCube/6u_s_9.png,Stimuli/testStimuliCube/6u_s_9.png,0,9,0.459015,,,,,,,,,c,3D
,,,,,,,19,male,B,2020-05-21_07h25.05.484,Remembering_Displays,2020.1.2,Win32,60,,,,,,,,,,,,,,,,0,4,4,4,1,Stimuli/trialListCubes2.xlsx,Instructions/instr_19.png,Progress: 72 of 192 trials completed,,
,,,,,,,19,male,B,2020-05-21_07h25.05.484,Remembering_Displays,2020.1.2,Win32,60,9,1,1,0,0.22557,0,0,0,12,1,Stimuli/testStimuliSquare/6u_s_13_s_2D.png,Stimuli/testStimuliSquare/6u_s_13_s_2D.png,0,9,0.335975,,,,,,,,,s,2D
,,,,,,,19,male,B,2020-05-21_07h25.05.484,Remembering_Displays,2020.1.2,Win32,60,1,1,1,0,1.76895,0,1,1,3,1,Stimuli/testStimuliSquare/6u_s_14_2D.png,Stimuli/testStimuliSquare/6u_d_14_2D.png,1,1,0.51955,,,,,,,,,c,2D
,,,,,,,19,male,B,2020-05-21_07h25.05.484,Remembering_Displays,2020.1.2,Win32,60,1,1,9,1,0.911235,0,2,2,9,1,Stimuli/testStimuliSquare/6u_s_17_2D.png,Stimuli/testStimuliSquare/6u_d_17_2D.png,1,1,0.414355,,,,,,,,,c,2D
,,,,,,,19,male,B,2020-05-21_07h25.05.484,Remembering_Displays,2020.1.2,Win32,60,1,1,9,0,0.558045,0,3,3,13,1,Stimuli/testStimuliSquare/6u_s_13_s_2D.png,Stimuli/testStimuliSquare/6u_d_13_s_2D.png,1,1,0.349965,,,,,,,,,s,2D
,,,,,,,19,male,B,2020-05-21_07h25.05.484,Remembering_Displays,2020.1.2,Win32,60,1,1,1,1,2.469525,0,4,4,21,1,Stimuli/testStimuliSquare/6u_s_17_s_2D.png,Stimuli/testStimuliSquare/6u_d_17_s_2D.png,1,1,0.341125,,,,,,,,,s,2D
,,,,,,,19,male,B,2020-05-21_07h25.05.484,Remembering_Displays,2020.1.2,Win32,60,1,1,9,1,0.919575,0,5,5,15,1,Stimuli/testStimuliSquare/6u_s_14_s_2D.png,Stimuli/testStimuliSquare/6u_d_14_s_2D.png,1,1,0.4495,,,,,,,,,s,2D
,,,,,,,19,male,B,2020-05-21_07h25.05.484,Remembering_Displays,2020.1.2,Win32,60,9,1,9,0,0.87075,0,6,6,4,1,Stimuli/testStimuliSquare/6u_s_15_2D.png,Stimuli/testStimuliSquare/6u_s_15_2D.png,0,9,0.377495,,,,,,,,,c,2D
,,,,,,,19,male,B,2020-05-21_07h25.05.484,Remembering_Displays,2020.1.2,Win32,60,9,1,1,1,1.06097,0,7,7,22,1,Stimuli/testStimuliSquare/6u_s_18_s_2D.png,Stimuli/testStimuliSquare/6u_s_18_s_2D.png,0,9,0.502515,,,,,,,,,s,2D
,,,,,,,19,male,B,2020-05-21_07h25.05.484,Remembering_Displays,2020.1.2,Win32,60,9,1,9,0,1.40856,0,8,8,0,1,Stimuli/testStimuliSquare/6u_s_13_2D.png,Stimuli/testStimuliSquare/6u_s_13_2D.png,0,9,0.379685,,,,,,,,,c,2D
,,,,,,,19,male,B,2020-05-21_07h25.05.484,Remembering_Displays,2020.1.2,Win32,60,9,1,9,1,1.237365,0,9,9,18,1,Stimuli/testStimuliSquare/6u_s_16_s_2D.png,Stimuli/testStimuliSquare/6u_s_16_s_2D.png,0,9,0.46865,,,,,,,,,s,2D
,,,,,,,19,male,B,2020-05-21_07h25.05.484,Remembering_Displays,2020.1.2,Win32,60,9,1,9,1,1.10551,0,10,10,6,1,Stimuli/testStimuliSquare/6u_s_16_2D.png,Stimuli/testStimuliSquare/6u_s_16_2D.png,0,9,0.44399,,,,,,,,,c,2D
,,,,,,,19,male,B,2020-05-21_07h25.05.484,Remembering_Displays,2020.1.2,Win32,60,9,1,1,1,1.87545,0,11,11,8,1,Stimuli/testStimuliSquare/6u_s_17_2D.png,Stimuli/testStimuliSquare/6u_s_17_2D.png,0,9,0.36649,,,,,,,,,c,2D
,,,,,,,19,male,B,2020-05-21_07h25.05.484,Remembering_Displays,2020.1.2,Win32,60,9,0,9,1,0.787445,0,12,12,1,1,Stimuli/testStimuliSquare/6u_s_13_2D.png,Stimuli/testStimuliSquare/6u_d_13_2D.png,1,1,0.426685,,,,,,,,,c,2D
,,,,,,,19,male,B,2020-05-21_07h25.05.484,Remembering_Displays,2020.1.2,Win32,60,9,1,1,1,0.615225,0,13,13,10,1,Stimuli/testStimuliSquare/6u_s_18_2D.png,Stimuli/testStimuliSquare/6u_s_18_2D.png,0,9,0.36715,,,,,,,,,c,2D
,,,,,,,19,male,B,2020-05-21_07h25.05.484,Remembering_Displays,2020.1.2,Win32,60,1,1,9,1,1.26972,0,14,14,7,1,Stimuli/testStimuliSquare/6u_s_16_2D.png,Stimuli/testStimuliSquare/6u_d_16_2D.png,1,1,0.563355,,,,,,,,,c,2D
,,,,,,,19,male,B,2020-05-21_07h25.05.484,Remembering_Displays,2020.1.2,Win32,60,1,1,9,0,0.77224,0,15,15,5,1,Stimuli/testStimuliSquare/6u_s_15_2D.png,Stimuli/testStimuliSquare/6u_d_15_2D.png,1,1,0.479945,,,,,,,,,c,2D
,,,,,,,19,male,B,2020-05-21_07h25.05.484,Remembering_Displays,2020.1.2,Win32,60,9,1,9,0,1.336435,0,16,16,20,1,Stimuli/testStimuliSquare/6u_s_17_s_2D.png,Stimuli/testStimuliSquare/6u_s_17_s_2D.png,0,9,0.41466,,,,,,,,,s,2D
,,,,,,,19,male,B,2020-05-21_07h25.05.484,Remembering_Displays,2020.1.2,Win32,60,9,0,9,1,0.488205,0,17,17,23,1,Stimuli/testStimuliSquare/6u_s_18_s_2D.png,Stimuli/testStimuliSquare/6u_d_18_s_2D.png,1,1,0.471535,,,,,,,,,s,2D
,,,,,,,19,male,B,2020-05-21_07h25.05.484,Remembering_Displays,2020.1.2,Win32,60,9,1,9,1,1.64108,0,18,18,16,1,Stimuli/testStimuliSquare/6u_s_15_s_2D.png,Stimuli/testStimuliSquare/6u_s_15_s_2D.png,0,9,0.449905,,,,,,,,,s,2D
,,,,,,,19,male,B,2020-05-21_07h25.05.484,Remembering_Displays,2020.1.2,Win32,60,9,1,9,1,1.374405,0,19,19,14,1,Stimuli/testStimuliSquare/6u_s_14_s_2D.png,Stimuli/testStimuliSquare/6u_s_14_s_2D.png,0,9,0.512295,,,,,,,,,s,2D
,,,,,,,19,male,B,2020-05-21_07h25.05.484,Remembering_Displays,2020.1.2,Win32,60,9,0,9,1,0.24102,0,20,20,19,1,Stimuli/testStimuliSquare/6u_s_16_s_2D.png,Stimuli/testStimuliSquare/6u_d_16_s_2D.png,1,1,0.43473,,,,,,,,,s,2D
,,,,,,,19,male,B,2020-05-21_07h25.05.484,Remembering_Displays,2020.1.2,Win32,60,9,0,1,0,0.97552,0,21,21,17,1,Stimuli/testStimuliSquare/6u_s_15_s_2D.png,Stimuli/testStimuliSquare/6u_d_15_s_2D.png,1,1,0.62578,,,,,,,,,s,2D
,,,,,,,19,male,B,2020-05-21_07h25.05.484,Remembering_Displays,2020.1.2,Win32,60,9,1,1,1,0.886915,0,22,22,2,1,Stimuli/testStimuliSquare/6u_s_14_2D.png,Stimuli/testStimuliSquare/6u_s_14_2D.png,0,9,0.43564,,,,,,,,,c,2D
,,,,,,,19,male,B,2020-05-21_07h25.05.484,Remembering_Displays,2020.1.2,Win32,60,9,0,1,1,2.13924,0,23,23,11,1,Stimuli/testStimuliSquare/6u_s_18_2D.png,Stimuli/testStimuliSquare/6u_d_18_2D.png,1,1,0.460785,,,,,,,,,c,2D
,,,,,,,19,male,B,2020-05-21_07h25.05.484,Remembering_Displays,2020.1.2,Win32,60,,,,,,,,,,,,,,,,0,5,5,5,1,Stimuli/trialListSquares3.xlsx,Instructions/instr_18.png,Progress: 96 of 192 trials completed,,
,,,,,,,19,male,B,2020-05-21_07h25.05.484,Remembering_Displays,2020.1.2,Win32,60,9,0,9,1,1.20361,0,0,0,1,1,Stimuli/testStimuliCube/6u_s_13.png,Stimuli/testStimuliCube/6u_d_13.png,1,1,0.377405,,,,,,,,,c,3D
,,,,,,,19,male,B,2020-05-21_07h25.05.484,Remembering_Displays,2020.1.2,Win32,60,1,1,9,1,1.186505,0,1,1,9,1,Stimuli/testStimuliCube/6u_s_17.png,Stimuli/testStimuliCube/6u_d_17.png,1,1,0.59504,,,,,,,,,c,3D
,,,,,,,19,male,B,2020-05-21_07h25.05.484,Remembering_Displays,2020.1.2,Win32,60,9,1,1,1,2.489155,0,2,2,20,1,Stimuli/testStimuliCube/6u_s_17_s.png,Stimuli/testStimuliCube/6u_s_17_s.png,0,9,0.441175,,,,,,,,,s,3D
,,,,,,,19,male,B,2020-05-21_07h25.05.484,Remembering_Displays,2020.1.2,Win32,60,9,1,1,1,1.826045,0,3,3,8,1,Stimuli/testStimuliCube/6u_s_17.png,Stimuli/testStimuliCube/6u_s_17.png,0,9,0.515725,,,,,,,,,c,3D
,,,,,,,19,male,B,2020-05-21_07h25.05.484,Remembering_Displays,2020.1.2,Win32,60,9,1,9,1,0.970195,0,4,4,10,1,Stimuli/testStimuliCube/6u_s_18.png,Stimuli/testStimuliCube/6u_s_18.png,0,9,0.456905,,,,,,,,,c,3D
,,,,,,,19,male,B,2020-05-21_07h25.05.484,Remembering_Displays,2020.1.2,Win32,60,1,1,9,0,0.66134,0,5,5,5,1,Stimuli/testStimuliCube/6u_s_15.png,Stimuli/testStimuliCube/6u_d_15.png,1,1,0.474295,,,,,,,,,c,3D
,,,,,,,19,male,B,2020-05-21_07h25.05.484,Remembering_Displays,2020.1.2,Win32,60,9,1,9,1,0.586395,0,6,6,22,1,Stimuli/testStimuliCube/6u_s_18_s.png,Stimuli/testStimuliCube/6u_s_18_s.png,0,9,0.499705,,,,,,,,,s,3D
,,,,,,,19,male,B,2020-05-21_07h25.05.484,Remembering_Displays,2020.1.2,Win32,60,1,1,9,1,3.8226,0,7,7,3,1,Stimuli/testStimuliCube/6u_s_14.png,Stimuli/testStimuliCube/6u_d_14.png,1,1,0.537665,,,,,,,,,c,3D
,,,,,,,19,male,B,2020-05-21_07h25.05.484,Remembering_Displays,2020.1.2,Win32,60,9,0,1,0,1.16881,0,8,8,21,1,Stimuli/testStimuliCube/6u_s_17_s.png,Stimuli/testStimuliCube/6u_d_17_s.png,1,1,0.46169,,,,,,,,,s,3D
,,,,,,,19,male,B,2020-05-21_07h25.05.484,Remembering_Displays,2020.1.2,Win32,60,1,1,1,1,0.83672,0,9,9,15,1,Stimuli/testStimuliCube/6u_s_14_s.png,Stimuli/testStimuliCube/6u_d_14_s.png,1,1,0.48366,,,,,,,,,s,3D
,,,,,,,19,male,B,2020-05-21_07h25.05.484,Remembering_Displays,2020.1.2,Win32,60,,0,1,1,2.18796,0,10,10,2,1,Stimuli/testStimuliCube/6u_s_14.png,Stimuli/testStimuliCube/6u_s_14.png,0,9,,,,,,,,,,c,3D
,,,,,,,19,male,B,2020-05-21_07h25.05.484,Remembering_Displays,2020.1.2,Win32,60,9,1,1,1,1.16939,0,11,11,0,1,Stimuli/testStimuliCube/6u_s_13.png,Stimuli/testStimuliCube/6u_s_13.png,0,9,0.36367,,,,,,,,,c,3D
,,,,,,,19,male,B,2020-05-21_07h25.05.484,Remembering_Displays,2020.1.2,Win32,60,1,1,9,0,1.33691,0,12,12,23,1,Stimuli/testStimuliCube/6u_s_18_s.png,Stimuli/testStimuliCube/6u_d_18_s.png,1,1,0.501865,,,,,,,,,s,3D
,,,,,,,19,male,B,2020-05-21_07h25.05.484,Remembering_Displays,2020.1.2,Win32,60,1,1,9,1,1.805405,0,13,13,7,1,Stimuli/testStimuliCube/6u_s_16.png,Stimuli/testStimuliCube/6u_d_16.png,1,1,0.488845,,,,,,,,,c,3D
,,,,,,,19,male,B,2020-05-21_07h25.05.484,Remembering_Displays,2020.1.2,Win32,60,9,1,1,1,0.918535,0,14,14,14,1,Stimuli/testStimuliCube/6u_s_14_s.png,Stimuli/testStimuliCube/6u_s_14_s.png,0,9,0.399575,,,,,,,,,s,3D
,,,,,,,19,male,B,2020-05-21_07h25.05.484,Remembering_Displays,2020.1.2,Win32,60,9,1,1,1,4.389685,0,15,15,12,1,Stimuli/testStimuliCube/6u_s_13_s.png,Stimuli/testStimuliCube/6u_s_13_s.png,0,9,0.497615,,,,,,,,,s,3D
,,,,,,,19,male,B,2020-05-21_07h25.05.484,Remembering_Displays,2020.1.2,Win32,60,1,1,1,1,1.30112,0,16,16,17,1,Stimuli/testStimuliCube/6u_s_15_s.png,Stimuli/testStimuliCube/6u_d_15_s.png,1,1,0.713195,,,,,,,,,s,3D
,,,,,,,19,male,B,2020-05-21_07h25.05.484,Remembering_Displays,2020.1.2,Win32,60,9,1,9,1,1.404375,0,17,17,6,1,Stimuli/testStimuliCube/6u_s_16.png,Stimuli/testStimuliCube/6u_s_16.png,0,9,0.525295,,,,,,,,,c,3D
,,,,,,,19,male,B,2020-05-21_07h25.05.484,Remembering_Displays,2020.1.2,Win32,60,1,1,1,0,1.449545,0,18,18,19,1,Stimuli/testStimuliCube/6u_s_16_s.png,Stimuli/testStimuliCube/6u_d_16_s.png,1,1,0.500555,,,,,,,,,s,3D
,,,,,,,19,male,B,2020-05-21_07h25.05.484,Remembering_Displays,2020.1.2,Win32,60,9,1,9,0,0.443075,0,19,19,18,1,Stimuli/testStimuliCube/6u_s_16_s.png,Stimuli/testStimuliCube/6u_s_16_s.png,0,9,0.550625,,,,,,,,,s,3D
,,,,,,,19,male,B,2020-05-21_07h25.05.484,Remembering_Displays,2020.1.2,Win32,60,9,1,1,0,1.945925,0,20,20,4,1,Stimuli/testStimuliCube/6u_s_15.png,Stimuli/testStimuliCube/6u_s_15.png,0,9,0.460015,,,,,,,,,c,3D
,,,,,,,19,male,B,2020-05-21_07h25.05.484,Remembering_Displays,2020.1.2,Win32,60,,0,1,1,0.957695,0,21,21,16,1,Stimuli/testStimuliCube/6u_s_15_s.png,Stimuli/testStimuliCube/6u_s_15_s.png,0,9,,,,,,,,,,s,3D
,,,,,,,19,male,B,2020-05-21_07h25.05.484,Remembering_Displays,2020.1.2,Win32,60,9,0,9,1,0.76941,0,22,22,13,1,Stimuli/testStimuliCube/6u_s_13_s.png,Stimuli/testStimuliCube/6u_d_13_s.png,1,1,0.449495,,,,,,,,,s,3D
,,,,,,,19,male,B,2020-05-21_07h25.05.484,Remembering_Displays,2020.1.2,Win32,60,9,0,9,1,0.737375,0,23,23,11,1,Stimuli/testStimuliCube/6u_s_18.png,Stimuli/testStimuliCube/6u_d_18.png,1,1,0.404565,,,,,,,,,c,3D
,,,,,,,19,male,B,2020-05-21_07h25.05.484,Remembering_Displays,2020.1.2,Win32,60,,,,,,,,,,,,,,,,0,6,6,6,1,Stimuli/trialListCubes3.xlsx,Instructions/instr_19.png,Progress: 120 of 192 trials completed,,
,,,,,,,19,male,B,2020-05-21_07h25.05.484,Remembering_Displays,2020.1.2,Win32,60,1,1,9,1,1.1395,0,0,0,21,1,Stimuli/testStimuliSquare/6u_s_11_s_2D.png,Stimuli/testStimuliSquare/6u_d_11_s_2D.png,1,1,0.493285,,,,,,,,,s,2D
,,,,,,,19,male,B,2020-05-21_07h25.05.484,Remembering_Displays,2020.1.2,Win32,60,9,1,9,1,0.954515,0,1,1,14,1,Stimuli/testStimuliSquare/6u_s_8_s_2D.png,Stimuli/testStimuliSquare/6u_s_8_s_2D.png,0,9,0.5912,,,,,,,,,s,2D
,,,,,,,19,male,B,2020-05-21_07h25.05.484,Remembering_Displays,2020.1.2,Win32,60,9,0,9,1,0.80392,0,2,2,5,1,Stimuli/testStimuliSquare/6u_s_9_2D.png,Stimuli/testStimuliSquare/6u_d_9_2D.png,1,1,0.476575,,,,,,,,,c,2D
,,,,,,,19,male,B,2020-05-21_07h25.05.484,Remembering_Displays,2020.1.2,Win32,60,9,0,1,1,1.269835,0,3,3,15,1,Stimuli/testStimuliSquare/6u_s_8_s_2D.png,Stimuli/testStimuliSquare/6u_d_8_s_2D.png,1,1,0.43979,,,,,,,,,s,2D
,,,,,,,19,male,B,2020-05-21_07h25.05.484,Remembering_Displays,2020.1.2,Win32,60,9,0,1,1,0.734185,0,4,4,3,1,Stimuli/testStimuliSquare/6u_s_8_2D.png,Stimuli/testStimuliSquare/6u_d_8_2D.png,1,1,0.4744,,,,,,,,,c,2D
,,,,,,,19,male,B,2020-05-21_07h25.05.484,Remembering_Displays,2020.1.2,Win32,60,9,1,1,1,0.90897,0,5,5,10,1,Stimuli/testStimuliSquare/6u_s_12_2D.png,Stimuli/testStimuliSquare/6u_s_12_2D.png,0,9,0.61374,,,,,,,,,c,2D
,,,,,,,19,male,B,2020-05-21_07h25.05.484,Remembering_Displays,2020.1.2,Win32,60,1,1,9,0,4.81252,0,6,6,7,1,Stimuli/testStimuliSquare/6u_s_10_2D.png,Stimuli/testStimuliSquare/6u_d_10_2D.png,1,1,0.67017,,,,,,,,,c,2D
,,,,,,,19,male,B,2020-05-21_07h25.05.484,Remembering_Displays,2020.1.2,Win32,60,9,0,1,0,2.675235,0,7,7,23,1,Stimuli/testStimuliSquare/6u_s_12_s_2D.png,Stimuli/testStimuliSquare/6u_d_12_s_2D.png,1,1,0.41221,,,,,,,,,s,2D
,,,,,,,19,male,B,2020-05-21_07h25.05.484,Remembering_Displays,2020.1.2,Win32,60,9,0,1,0,0.63556,0,8,8,1,1,Stimuli/testStimuliSquare/6u_s_7_2D.png,Stimuli/testStimuliSquare/6u_d_7_2D.png,1,1,0.536545,,,,,,,,,c,2D
,,,,,,,19,male,B,2020-05-21_07h25.05.484,Remembering_Displays,2020.1.2,Win32,60,9,0,1,1,1.63636,0,9,9,17,1,Stimuli/testStimuliSquare/6u_s_9_s_2D.png,Stimuli/testStimuliSquare/6u_d_9_s_2D.png,1,1,0.54325,,,,,,,,,s,2D
,,,,,,,19,male,B,2020-05-21_07h25.05.484,Remembering_Displays,2020.1.2,Win32,60,9,1,1,1,2.83257,0,10,10,2,1,Stimuli/testStimuliSquare/6u_s_8_2D.png,Stimuli/testStimuliSquare/6u_s_8_2D.png,0,9,0.77252,,,,,,,,,c,2D
,,,,,,,19,male,B,2020-05-21_07h25.05.484,Remembering_Displays,2020.1.2,Win32,60,9,1,1,1,2.4556,0,11,11,6,1,Stimuli/testStimuliSquare/6u_s_10_2D.png,Stimuli/testStimuliSquare/6u_s_10_2D.png,0,9,0.39988,,,,,,,,,c,2D
,,,,,,,19,male,B,2020-05-21_07h25.05.484,Remembering_Displays,2020.1.2,Win32,60,1,1,1,1,0.702505,0,12,12,9,1,Stimuli/testStimuliSquare/6u_s_11_2D.png,Stimuli/testStimuliSquare/6u_d_11_2D.png,1,1,0.51614,,,,,,,,,c,2D
,,,,,,,19,male,B,2020-05-21_07h25.05.484,Remembering_Displays,2020.1.2,Win32,60,9,0,1,1,2.255075,0,13,13,19,1,Stimuli/testStimuliSquare/6u_s_10_s_2D.png,Stimuli/testStimuliSquare/6u_d_10_s_2D.png,1,1,0.57182,,,,,,,,,s,2D
,,,,,,,19,male,B,2020-05-21_07h25.05.484,Remembering_Displays,2020.1.2,Win32,60,1,0,9,1,1.208195,0,14,14,18,1,Stimuli/testStimuliSquare/6u_s_10_s_2D.png,Stimuli/testStimuliSquare/6u_s_10_s_2D.png,0,9,0.333235,,,,,,,,,s,2D
,,,,,,,19,male,B,2020-05-21_07h25.05.484,Remembering_Displays,2020.1.2,Win32,60,9,0,1,0,1.459245,0,15,15,11,1,Stimuli/testStimuliSquare/6u_s_12_2D.png,Stimuli/testStimuliSquare/6u_d_12_2D.png,1,1,0.4681,,,,,,,,,c,2D
,,,,,,,19,male,B,2020-05-21_07h25.05.484,Remembering_Displays,2020.1.2,Win32,60,9,1,9,1,1.073215,0,16,16,12,1,Stimuli/testStimuliSquare/6u_s_7_s_2D.png,Stimuli/testStimuliSquare/6u_s_7_s_2D.png,0,9,0.435475,,,,,,,,,s,2D
,,,,,,,19,male,B,2020-05-21_07h25.05.484,Remembering_Displays,2020.1.2,Win32,60,9,1,1,1,0.691675,0,17,17,4,1,Stimuli/testStimuliSquare/6u_s_9_2D.png,Stimuli/testStimuliSquare/6u_s_9_2D.png,0,9,0.478675,,,,,,,,,c,2D
,,,,,,,19,male,B,2020-05-21_07h25.05.484,Remembering_Displays,2020.1.2,Win32,60,1,0,1,1,1.05022,0,18,18,0,1,Stimuli/testStimuliSquare/6u_s_7_2D.png,Stimuli/testStimuliSquare/6u_s_7_2D.png,0,9,0.52975,,,,,,,,,c,2D
,,,,,,,19,male,B,2020-05-21_07h25.05.484,Remembering_Displays,2020.1.2,Win32,60,9,1,9,1,0.836505,0,19,19,8,1,Stimuli/testStimuliSquare/6u_s_11_2D.png,Stimuli/testStimuliSquare/6u_s_11_2D.png,0,9,0.44542,,,,,,,,,c,2D
,,,,,,,19,male,B,2020-05-21_07h25.05.484,Remembering_Displays,2020.1.2,Win32,60,9,1,1,1,0.675445,0,20,20,22,1,Stimuli/testStimuliSquare/6u_s_12_s_2D.png,Stimuli/testStimuliSquare/6u_s_12_s_2D.png,0,9,0.40876,,,,,,,,,s,2D
,,,,,,,19,male,B,2020-05-21_07h25.05.484,Remembering_Displays,2020.1.2,Win32,60,9,1,1,1,1.38588,0,21,21,20,1,Stimuli/testStimuliSquare/6u_s_11_s_2D.png,Stimuli/testStimuliSquare/6u_s_11_s_2D.png,0,9,0.548225,,,,,,,,,s,2D
,,,,,,,19,male,B,2020-05-21_07h25.05.484,Remembering_Displays,2020.1.2,Win32,60,1,1,1,1,0.62008,0,22,22,13,1,Stimuli/testStimuliSquare/6u_s_7_s_2D.png,Stimuli/testStimuliSquare/6u_d_7_s_2D.png,1,1,0.630835,,,,,,,,,s,2D
,,,,,,,19,male,B,2020-05-21_07h25.05.484,Remembering_Displays,2020.1.2,Win32,60,9,1,1,1,1.007635,0,23,23,16,1,Stimuli/testStimuliSquare/6u_s_9_s_2D.png,Stimuli/testStimuliSquare/6u_s_9_s_2D.png,0,9,0.384745,,,,,,,,,s,2D
,,,,,,,19,male,B,2020-05-21_07h25.05.484,Remembering_Displays,2020.1.2,Win32,60,,,,,,,,,,,,,,,,0,7,7,7,1,Stimuli/trialListSquares2.xlsx,Instructions/instr_18.png,Progress: 144 of 192 trials completed,,
,,,,,,,19,male,B,2020-05-21_07h25.05.484,Remembering_Displays,2020.1.2,Win32,60,9,1,1,1,1.768405,0,0,0,2,1,Stimuli/testStimuliCube/6u_s_20.png,Stimuli/testStimuliCube/6u_s_20.png,0,9,0.345035,,,,,,,,,c,3D
,,,,,,,19,male,B,2020-05-21_07h25.05.484,Remembering_Displays,2020.1.2,Win32,60,9,1,1,1,1.172775,0,1,1,22,1,Stimuli/testStimuliCube/6u_s_24_s.png,Stimuli/testStimuliCube/6u_s_24_s.png,0,9,0.50496,,,,,,,,,s,3D
,,,,,,,19,male,B,2020-05-21_07h25.05.484,Remembering_Displays,2020.1.2,Win32,60,1,1,9,1,1.22551,0,2,2,3,1,Stimuli/testStimuliCube/6u_s_20.png,Stimuli/testStimuliCube/6u_d_20.png,1,1,0.51081,,,,,,,,,c,3D
,,,,,,,19,male,B,2020-05-21_07h25.05.484,Remembering_Displays,2020.1.2,Win32,60,1,1,1,0,1.590425,0,3,3,11,1,Stimuli/testStimuliCube/6u_s_24.png,Stimuli/testStimuliCube/6u_d_24.png,1,1,0.57296,,,,,,,,,c,3D
,,,,,,,19,male,B,2020-05-21_07h25.05.484,Remembering_Displays,2020.1.2,Win32,60,1,1,9,1,1.85211,0,4,4,5,1,Stimuli/testStimuliCube/6u_s_21.png,Stimuli/testStimuliCube/6u_d_21.png,1,1,0.509005,,,,,,,,,c,3D
,,,,,,,19,male,B,2020-05-21_07h25.05.484,Remembering_Displays,2020.1.2,Win32,60,1,1,1,1,1.07184,0,5,5,15,1,Stimuli/testStimuliCube/6u_s_20_s.png,Stimuli/testStimuliCube/6u_d_20_s.png,1,1,0.553715,,,,,,,,,s,3D
,,,,,,,19,male,B,2020-05-21_07h25.05.484,Remembering_Displays,2020.1.2,Win32,60,9,1,1,1,0.884785,0,6,6,10,1,Stimuli/testStimuliCube/6u_s_24.png,Stimuli/testStimuliCube/6u_s_24.png,0,9,0.599105,,,,,,,,,c,3D
,,,,,,,19,male,B,2020-05-21_07h25.05.484,Remembering_Displays,2020.1.2,Win32,60,9,1,1,1,1.124355,0,7,7,8,1,Stimuli/testStimuliCube/6u_s_23.png,Stimuli/testStimuliCube/6u_s_23.png,0,9,0.52897,,,,,,,,,c,3D
,,,,,,,19,male,B,2020-05-21_07h25.05.484,Remembering_Displays,2020.1.2,Win32,60,9,1,9,1,1.18617,0,8,8,12,1,Stimuli/testStimuliCube/6u_s_19_s.png,Stimuli/testStimuliCube/6u_s_19_s.png,0,9,0.595855,,,,,,,,,s,3D
,,,,,,,19,male,B,2020-05-21_07h25.05.484,Remembering_Displays,2020.1.2,Win32,60,9,0,9,1,0.76096,0,9,9,23,1,Stimuli/testStimuliCube/6u_s_24_s.png,Stimuli/testStimuliCube/6u_d_24_s.png,1,1,0.47999,,,,,,,,,s,3D
,,,,,,,19,male,B,2020-05-21_07h25.05.484,Remembering_Displays,2020.1.2,Win32,60,1,1,9,1,1.255325,0,10,10,19,1,Stimuli/testStimuliCube/6u_s_22_s.png,Stimuli/testStimuliCube/6u_d_22_s.png,1,1,0.59517,,,,,,,,,s,3D
,,,,,,,19,male,B,2020-05-21_07h25.05.484,Remembering_Displays,2020.1.2,Win32,60,9,1,1,1,0.90247,0,11,11,20,1,Stimuli/testStimuliCube/6u_s_23_s.png,Stimuli/testStimuliCube/6u_s_23_s.png,0,9,0.498745,,,,,,,,,s,3D
,,,,,,,19,male,B,2020-05-21_07h25.05.484,Remembering_Displays,2020.1.2,Win32,60,,0,1,1,1.00297,0,12,12,18,1,Stimuli/testStimuliCube/6u_s_22_s.png,Stimuli/testStimuliCube/6u_s_22_s.png,0,9,,,,,,,,,,s,3D
,,,,,,,19,male,B,2020-05-21_07h25.05.484,Remembering_Displays,2020.1.2,Win32,60,9,1,1,1,0.47036,0,13,13,0,1,Stimuli/testStimuliCube/6u_s_19.png,Stimuli/testStimuliCube/6u_s_19.png,0,9,0.63105,,,,,,,,,c,3D
,,,,,,,19,male,B,2020-05-21_07h25.05.484,Remembering_Displays,2020.1.2,Win32,60,1,1,1,1,1.00221,0,14,14,1,1,Stimuli/testStimuliCube/6u_s_19.png,Stimuli/testStimuliCube/6u_d_19.png,1,1,0.49332,,,,,,,,,c,3D
,,,,,,,19,male,B,2020-05-21_07h25.05.484,Remembering_Displays,2020.1.2,Win32,60,1,1,9,0,1.604785,0,15,15,17,1,Stimuli/testStimuliCube/6u_s_21_s.png,Stimuli/testStimuliCube/6u_d_21_s.png,1,1,0.545475,,,,,,,,,s,3D
,,,,,,,19,male,B,2020-05-21_07h25.05.484,Remembering_Displays,2020.1.2,Win32,60,1,1,9,1,1.871405,0,16,16,21,1,Stimuli/testStimuliCube/6u_s_23_s.png,Stimuli/testStimuliCube/6u_d_23_s.png,1,1,0.45147,,,,,,,,,s,3D
,,,,,,,19,male,B,2020-05-21_07h25.05.484,Remembering_Displays,2020.1.2,Win32,60,1,1,1,1,1.473285,0,17,17,7,1,Stimuli/testStimuliCube/6u_s_22.png,Stimuli/testStimuliCube/6u_d_22.png,1,1,0.423885,,,,,,,,,c,3D
,,,,,,,19,male,B,2020-05-21_07h25.05.484,Remembering_Displays,2020.1.2,Win32,60,9,0,9,0,2.944365,0,18,18,13,1,Stimuli/testStimuliCube/6u_s_19_s.png,Stimuli/testStimuliCube/6u_d_19_s.png,1,1,0.4468,,,,,,,,,s,3D
,,,,,,,19,male,B,2020-05-21_07h25.05.484,Remembering_Displays,2020.1.2,Win32,60,1,0,1,1,0.353515,0,19,19,14,1,Stimuli/testStimuliCube/6u_s_20_s.png,Stimuli/testStimuliCube/6u_s_20_s.png,0,9,0.33361,,,,,,,,,s,3D
,,,,,,,19,male,B,2020-05-21_07h25.05.484,Remembering_Displays,2020.1.2,Win32,60,1,1,9,1,1.205705,0,20,20,9,1,Stimuli/testStimuliCube/6u_s_23.png,Stimuli/testStimuliCube/6u_d_23.png,1,1,0.497635,,,,,,,,,c,3D
,,,,,,,19,male,B,2020-05-21_07h25.05.484,Remembering_Displays,2020.1.2,Win32,60,9,1,1,1,1.370795,0,21,21,16,1,Stimuli/testStimuliCube/6u_s_21_s.png,Stimuli/testStimuliCube/6u_s_21_s.png,0,9,0.453895,,,,,,,,,s,3D
,,,,,,,19,male,B,2020-05-21_07h25.05.484,Remembering_Displays,2020.1.2,Win32,60,9,1,1,1,0.7691,0,22,22,4,1,Stimuli/testStimuliCube/6u_s_21.png,Stimuli/testStimuliCube/6u_s_21.png,0,9,0.600885,,,,,,,,,c,3D
,,,,,,,19,male,B,2020-05-21_07h25.05.484,Remembering_Displays,2020.1.2,Win32,60,9,1,1,1,0.774195,0,23,23,6,1,Stimuli/testStimuliCube/6u_s_22.png,Stimuli/testStimuliCube/6u_s_22.png,0,9,0.6584,,,,,,,,,c,3D
,,,,,,,19,male,B,2020-05-21_07h25.05.484,Remembering_Displays,2020.1.2,Win32,60,,,,,,,,,,,,,,,,0,8,8,8,1,Stimuli/trialListCubes4.xlsx,Instructions/instr_19.png,Progress: 168 of 192 trials completed,,
,,,,,,,19,male,B,2020-05-21_07h25.05.484,Remembering_Displays,2020.1.2,Win32,60,1,1,1,0,1.534645,0,0,0,7,1,Stimuli/testStimuliSquare/6u_s_4_2D.png,Stimuli/testStimuliSquare/6u_d_4_2D.png,1,1,0.48692,,,,,,,,,c,2D
,,,,,,,19,male,B,2020-05-21_07h25.05.484,Remembering_Displays,2020.1.2,Win32,60,1,1,9,0,0.83474,0,1,1,3,1,Stimuli/testStimuliSquare/6u_s_2_2D.png,Stimuli/testStimuliSquare/6u_d_2_2D.png,1,1,0.686005,,,,,,,,,c,2D
,,,,,,,19,male,B,2020-05-21_07h25.05.484,Remembering_Displays,2020.1.2,Win32,60,1,1,1,1,0.805005,0,2,2,21,1,Stimuli/testStimuliSquare/6u_s_5_s_2D.png,Stimuli/testStimuliSquare/6u_d_5_s_2D.png,1,1,0.58912,,,,,,,,,s,2D
,,,,,,,19,male,B,2020-05-21_07h25.05.484,Remembering_Displays,2020.1.2,Win32,60,1,1,1,1,1.385685,0,3,3,17,1,Stimuli/testStimuliSquare/6u_s_3_s_2D.png,Stimuli/testStimuliSquare/6u_d_3_s_2D.png,1,1,0.489905,,,,,,,,,s,2D
,,,,,,,19,male,B,2020-05-21_07h25.05.484,Remembering_Displays,2020.1.2,Win32,60,9,1,9,1,0.904875,0,4,4,14,1,Stimuli/testStimuliSquare/6u_s_2_s_2D.png,Stimuli/testStimuliSquare/6u_s_2_s_2D.png,0,9,0.6395,,,,,,,,,s,2D
,,,,,,,19,male,B,2020-05-21_07h25.05.484,Remembering_Displays,2020.1.2,Win32,60,1,1,9,1,2.05246,0,5,5,15,1,Stimuli/testStimuliSquare/6u_s_2_s_2D.png,Stimuli/testStimuliSquare/6u_d_2_s_2D.png,1,1,0.660125,,,,,,,,,s,2D
,,,,,,,19,male,B,2020-05-21_07h25.05.484,Remembering_Displays,2020.1.2,Win32,60,1,1,1,1,1.154895,0,6,6,23,1,Stimuli/testStimuliSquare/6u_s_6_s_2D.png,Stimuli/testStimuliSquare/6u_d_6_s_2D.png,1,1,0.762255,,,,,,,,,s,2D
,,,,,,,19,male,B,2020-05-21_07h25.05.484,Remembering_Displays,2020.1.2,Win32,60,1,1,9,1,1.252325,0,7,7,5,1,Stimuli/testStimuliSquare/6u_s_3_2D.png,Stimuli/testStimuliSquare/6u_d_3_2D.png,1,1,0.521725,,,,,,,,,c,2D
,,,,,,,19,male,B,2020-05-21_07h25.05.484,Remembering_Displays,2020.1.2,Win32,60,1,0,9,0,0.63648,0,8,8,20,1,Stimuli/testStimuliSquare/6u_s_5_s_2D.png,Stimuli/testStimuliSquare/6u_s_5_s_2D.png,0,9,0.88359,,,,,,,,,s,2D
,,,,,,,19,male,B,2020-05-21_07h25.05.484,Remembering_Displays,2020.1.2,Win32,60,9,1,1,1,0.678005,0,9,9,12,1,Stimuli/testStimuliSquare/6u_s_1_s_2D.png,Stimuli/testStimuliSquare/6u_s_1_s_2D.png,0,9,0.492895,,,,,,,,,s,2D
,,,,,,,19,male,B,2020-05-21_07h25.05.484,Remembering_Displays,2020.1.2,Win32,60,1,1,9,1,0.92237,0,10,10,11,1,Stimuli/testStimuliSquare/6u_s_6_2D.png,Stimuli/testStimuliSquare/6u_d_6_2D.png,1,1,0.556695,,,,,,,,,c,2D
,,,,,,,19,male,B,2020-05-21_07h25.05.484,Remembering_Displays,2020.1.2,Win32,60,9,1,9,1,1.31008,0,11,11,6,1,Stimuli/testStimuliSquare/6u_s_4_2D.png,Stimuli/testStimuliSquare/6u_s_4_2D.png,0,9,0.573365,,,,,,,,,c,2D
,,,,,,,19,male,B,2020-05-21_07h25.05.484,Remembering_Displays,2020.1.2,Win32,60,9,1,9,1,0.694835,0,12,12,10,1,Stimuli/testStimuliSquare/6u_s_6_2D.png,Stimuli/testStimuliSquare/6u_s_6_2D.png,0,9,0.78979,,,,,,,,,c,2D
,,,,,,,19,male,B,2020-05-21_07h25.05.484,Remembering_Displays,2020.1.2,Win32,60,9,1,1,1,3.00852,0,13,13,2,1,Stimuli/testStimuliSquare/6u_s_2_2D.png,Stimuli/testStimuliSquare/6u_s_2_2D.png,0,9,0.46398,,,,,,,,,c,2D
,,,,,,,19,male,B,2020-05-21_07h25.05.484,Remembering_Displays,2020.1.2,Win32,60,1,0,1,1,0.903565,0,14,14,8,1,Stimuli/testStimuliSquare/6u_s_5_2D.png,Stimuli/testStimuliSquare/6u_s_5_2D.png,0,9,0.731535,,,,,,,,,c,2D
,,,,,,,19,male,B,2020-05-21_07h25.05.484,Remembering_Displays,2020.1.2,Win32,60,1,1,9,1,2.07159,0,15,15,1,1,Stimuli/testStimuliSquare/6u_s_1_2D.png,Stimuli/testStimuliSquare/6u_d_1_2D.png,1,1,0.54807,,,,,,,,,c,2D
,,,,,,,19,male,B,2020-05-21_07h25.05.484,Remembering_Displays,2020.1.2,Win32,60,1,1,1,1,0.86637,0,16,16,19,1,Stimuli/testStimuliSquare/6u_s_4_s_2D.png,Stimuli/testStimuliSquare/6u_d_4_s_2D.png,1,1,0.67929,,,,,,,,,s,2D
,,,,,,,19,male,B,2020-05-21_07h25.05.484,Remembering_Displays,2020.1.2,Win32,60,1,0,9,1,0.97788,0,17,17,18,1,Stimuli/testStimuliSquare/6u_s_4_s_2D.png,Stimuli/testStimuliSquare/6u_s_4_s_2D.png,0,9,0.749165,,,,,,,,,s,2D
,,,,,,,19,male,B,2020-05-21_07h25.05.484,Remembering_Displays,2020.1.2,Win32,60,1,1,9,0,0.771975,0,18,18,9,1,Stimuli/testStimuliSquare/6u_s_5_2D.png,Stimuli/testStimuliSquare/6u_d_5_2D.png,1,1,0.508335,,,,,,,,,c,2D
,,,,,,,19,male,B,2020-05-21_07h25.05.484,Remembering_Displays,2020.1.2,Win32,60,9,1,1,1,0.750535,0,19,19,4,1,Stimuli/testStimuliSquare/6u_s_3_2D.png,Stimuli/testStimuliSquare/6u_s_3_2D.png,0,9,0.57303,,,,,,,,,c,2D
,,,,,,,19,male,B,2020-05-21_07h25.05.484,Remembering_Displays,2020.1.2,Win32,60,9,1,9,1,1.136525,0,20,20,22,1,Stimuli/testStimuliSquare/6u_s_6_s_2D.png,Stimuli/testStimuliSquare/6u_s_6_s_2D.png,0,9,0.551395,,,,,,,,,s,2D
,,,,,,,19,male,B,2020-05-21_07h25.05.484,Remembering_Displays,2020.1.2,Win32,60,9,1,1,1,0.320155,0,21,21,16,1,Stimuli/testStimuliSquare/6u_s_3_s_2D.png,Stimuli/testStimuliSquare/6u_s_3_s_2D.png,0,9,0.507915,,,,,,,,,s,2D
,,,,,,,19,male,B,2020-05-21_07h25.05.484,Remembering_Displays,2020.1.2,Win32,60,1,1,1,1,0.771385,0,22,22,13,1,Stimuli/testStimuliSquare/6u_s_1_s_2D.png,Stimuli/testStimuliSquare/6u_d_1_s_2D.png,1,1,0.41572,,,,,,,,,s,2D
,,,,,,,19,male,B,2020-05-21_07h25.05.484,Remembering_Displays,2020.1.2,Win32,60,9,1,1,1,0.651335,0,23,23,0,1,Stimuli/testStimuliSquare/6u_s_1_2D.png,Stimuli/testStimuliSquare/6u_s_1_2D.png,0,9,0.575095,,,,,,,,,c,2D