instr_Loop.thisRepN,instr_Loop.thisTrialN,instr_Loop.thisN,instr_Loop.thisIndex,instr_Loop.ran,instructionImage,time,age,sex (female/male),order,date,expName,psychopyVersion,OS,frameRate,struc_judge_respond.keys,struc_judge_respond.corr,struc_judge_respond.rt,dual_respond.keys,dual_respond.corr,dual_respond.rt,trials.thisRepN,trials.thisTrialN,trials.thisN,trials.thisIndex,trials.ran,stim1,stim2,isAnyChange,corrAns,selectBlock.thisRepN,selectBlock.thisTrialN,selectBlock.thisN,selectBlock.thisIndex,selectBlock.ran,condsFile,condsImage,remaining,connected,dimensionality
0,0,0,0,1,Instructions/consent.png,3,20,male,B,2020-05-24_15h04.19.714,Remembering_Displays,2020.1.2,MacIntel,60,,,,,,,,,,,,,,,,,,,,,,,,,
0,1,1,1,1,Instructions/instr_1.png,5,20,male,B,2020-05-24_15h04.19.714,Remembering_Displays,2020.1.2,MacIntel,60,,,,,,,,,,,,,,,,,,,,,,,,,
0,2,2,2,1,Instructions/instr_2.png,3,20,male,B,2020-05-24_15h04.19.714,Remembering_Displays,2020.1.2,MacIntel,60,,,,,,,,,,,,,,,,,,,,,,,,,
0,3,3,3,1,Instructions/instr_3.png,5,20,male,B,2020-05-24_15h04.19.714,Remembering_Displays,2020.1.2,MacIntel,60,,,,,,,,,,,,,,,,,,,,,,,,,
0,4,4,4,1,Instructions/instr_4.png,1,20,male,B,2020-05-24_15h04.19.714,Remembering_Displays,2020.1.2,MacIntel,60,,,,,,,,,,,,,,,,,,,,,,,,,
0,5,5,5,1,Instructions/instr_5.png,1,20,male,B,2020-05-24_15h04.19.714,Remembering_Displays,2020.1.2,MacIntel,60,,,,,,,,,,,,,,,,,,,,,,,,,
0,6,6,6,1,Instructions/instr_6.png,1,20,male,B,2020-05-24_15h04.19.714,Remembering_Displays,2020.1.2,MacIntel,60,,,,,,,,,,,,,,,,,,,,,,,,,
0,7,7,7,1,Instructions/instr_7.png,1,20,male,B,2020-05-24_15h04.19.714,Remembering_Displays,2020.1.2,MacIntel,60,,,,,,,,,,,,,,,,,,,,,,,,,
0,8,8,8,1,Instructions/instr_8.png,3,20,male,B,2020-05-24_15h04.19.714,Remembering_Displays,2020.1.2,MacIntel,60,,,,,,,,,,,,,,,,,,,,,,,,,
0,9,9,9,1,Instructions/instr_9.png,3,20,male,B,2020-05-24_15h04.19.714,Remembering_Displays,2020.1.2,MacIntel,60,,,,,,,,,,,,,,,,,,,,,,,,,
0,10,10,10,1,Instructions/instr_10.png,3,20,male,B,2020-05-24_15h04.19.714,Remembering_Displays,2020.1.2,MacIntel,60,,,,,,,,,,,,,,,,,,,,,,,,,
0,11,11,11,1,Instructions/instr_11.png,3,20,male,B,2020-05-24_15h04.19.714,Remembering_Displays,2020.1.2,MacIntel,60,,,,,,,,,,,,,,,,,,,,,,,,,
0,12,12,12,1,Instructions/instr_12.png,3,20,male,B,2020-05-24_15h04.19.714,Remembering_Displays,2020.1.2,MacIntel,60,,,,,,,,,,,,,,,,,,,,,,,,,
0,13,13,13,1,Instructions/instr_13.png,3,20,male,B,2020-05-24_15h04.19.714,Remembering_Displays,2020.1.2,MacIntel,60,,,,,,,,,,,,,,,,,,,,,,,,,
0,14,14,14,1,Instructions/instr_14.png,3,20,male,B,2020-05-24_15h04.19.714,Remembering_Displays,2020.1.2,MacIntel,60,,,,,,,,,,,,,,,,,,,,,,,,,
0,15,15,15,1,Instructions/instr_15.png,3,20,male,B,2020-05-24_15h04.19.714,Remembering_Displays,2020.1.2,MacIntel,60,,,,,,,,,,,,,,,,,,,,,,,,,
0,16,16,16,1,Instructions/instr_16.png,5,20,male,B,2020-05-24_15h04.19.714,Remembering_Displays,2020.1.2,MacIntel,60,,,,,,,,,,,,,,,,,,,,,,,,,
,,,,,,,20,male,B,2020-05-24_15h04.19.714,Remembering_Displays,2020.1.2,MacIntel,60,1,0,0.56876,9,0,2.172585,0,0,0,0,1,Stimuli/practiceStimuliCube/practice1_s.png,Stimuli/practiceStimuliCube/practice1_s.png,0,9,,,,,,,,,,
,,,,,,,20,male,B,2020-05-24_15h04.19.714,Remembering_Displays,2020.1.2,MacIntel,60,,0,,9,0,1.971865,0,1,1,6,1,Stimuli/practiceStimuliCube/practice3_s.png,Stimuli/practiceStimuliCube/practice3_d.png,1,1,,,,,,,,,,
,,,,,,,20,male,B,2020-05-24_15h04.19.714,Remembering_Displays,2020.1.2,MacIntel,60,1,1,0.523705,1,1,5.826295,0,2,2,3,1,Stimuli/practiceStimuliCube/practice4_s.png,Stimuli/practiceStimuliCube/practice4_d.png,1,1,,,,,,,,,,
,,,,,,,20,male,B,2020-05-24_15h04.19.714,Remembering_Displays,2020.1.2,MacIntel,60,9,0,1.107925,1,0,2.253475,0,3,3,4,1,Stimuli/practiceStimuliCube/practice1_s.png,Stimuli/practiceStimuliCube/practice1_d.png,1,1,,,,,,,,,,
,,,,,,,20,male,B,2020-05-24_15h04.19.714,Remembering_Displays,2020.1.2,MacIntel,60,1,0,0.85802,1,1,2.80047,0,4,4,2,1,Stimuli/practiceStimuliCube/practice3_s.png,Stimuli/practiceStimuliCube/practice3_s.png,0,9,,,,,,,,,,
,,,,,,,20,male,B,2020-05-24_15h04.19.714,Remembering_Displays,2020.1.2,MacIntel,60,1,1,0.92739,9,1,2.686755,0,5,5,1,1,Stimuli/practiceStimuliCube/practice2_s.png,Stimuli/practiceStimuliCube/practice2_d.png,1,1,,,,,,,,,,
,,,,,,,20,male,B,2020-05-24_15h04.19.714,Remembering_Displays,2020.1.2,MacIntel,60,9,1,1.018775,9,0,2.27421,0,6,6,7,1,Stimuli/practiceStimuliCube/practice4_s.png,Stimuli/practiceStimuliCube/practice4_s.png,0,9,,,,,,,,,,
,,,,,,,20,male,B,2020-05-24_15h04.19.714,Remembering_Displays,2020.1.2,MacIntel,60,1,0,0.7493,9,0,2.2891,0,7,7,5,1,Stimuli/practiceStimuliCube/practice2_s.png,Stimuli/practiceStimuliCube/practice2_s.png,0,9,,,,,,,,,,
,,,,,,,20,male,B,2020-05-24_15h04.19.714,Remembering_Displays,2020.1.2,MacIntel,60,,,,,,,,,,,,,,,,0,0,0,0,1,Stimuli/practiceListCubes.xlsx,Instructions/instr_practice_B.png,Practice trials completed,,
,,,,,,,20,male,B,2020-05-24_15h04.19.714,Remembering_Displays,2020.1.2,MacIntel,60,1,1,1.0074,1,1,3.73792,0,0,0,1,1,Stimuli/testStimuliCube/6u_s_1.png,Stimuli/testStimuliCube/6u_d_1.png,1,1,,,,,,,,,c,3D
,,,,,,,20,male,B,2020-05-24_15h04.19.714,Remembering_Displays,2020.1.2,MacIntel,60,1,0,0.63162,1,1,1.54931,0,1,1,2,1,Stimuli/testStimuliCube/6u_s_2.png,Stimuli/testStimuliCube/6u_s_2.png,0,9,,,,,,,,,c,3D
,,,,,,,20,male,B,2020-05-24_15h04.19.714,Remembering_Displays,2020.1.2,MacIntel,60,1,1,0.674585,9,1,1.45292,0,2,2,23,1,Stimuli/testStimuliCube/6u_s_6_s.png,Stimuli/testStimuliCube/6u_d_6_s.png,1,1,,,,,,,,,s,3D
,,,,,,,20,male,B,2020-05-24_15h04.19.714,Remembering_Displays,2020.1.2,MacIntel,60,9,0,0.643965,9,0,2.225435,0,3,3,3,1,Stimuli/testStimuliCube/6u_s_2.png,Stimuli/testStimuliCube/6u_d_2.png,1,1,,,,,,,,,c,3D
,,,,,,,20,male,B,2020-05-24_15h04.19.714,Remembering_Displays,2020.1.2,MacIntel,60,9,1,0.66589,9,1,1.6017,0,4,4,6,1,Stimuli/testStimuliCube/6u_s_4.png,Stimuli/testStimuliCube/6u_s_4.png,0,9,,,,,,,,,c,3D
,,,,,,,20,male,B,2020-05-24_15h04.19.714,Remembering_Displays,2020.1.2,MacIntel,60,1,1,0.84503,9,0,2.06851,0,5,5,17,1,Stimuli/testStimuliCube/6u_s_3_s.png,Stimuli/testStimuliCube/6u_d_3_s.png,1,1,,,,,,,,,s,3D
,,,,,,,20,male,B,2020-05-24_15h04.19.714,Remembering_Displays,2020.1.2,MacIntel,60,9,1,0.83794,1,0,2.5707,0,6,6,16,1,Stimuli/testStimuliCube/6u_s_3_s.png,Stimuli/testStimuliCube/6u_s_3_s.png,0,9,,,,,,,,,s,3D
,,,,,,,20,male,B,2020-05-24_15h04.19.714,Remembering_Displays,2020.1.2,MacIntel,60,9,0,0.7316,1,1,0.804905,0,7,7,21,1,Stimuli/testStimuliCube/6u_s_5_s.png,Stimuli/testStimuliCube/6u_d_5_s.png,1,1,,,,,,,,,s,3D
,,,,,,,20,male,B,2020-05-24_15h04.19.714,Remembering_Displays,2020.1.2,MacIntel,60,1,1,0.85957,9,1,0.768725,0,8,8,19,1,Stimuli/testStimuliCube/6u_s_4_s.png,Stimuli/testStimuliCube/6u_d_4_s.png,1,1,,,,,,,,,s,3D
,,,,,,,20,male,B,2020-05-24_15h04.19.714,Remembering_Displays,2020.1.2,MacIntel,60,9,1,0.511895,1,1,1.009005,0,9,9,14,1,Stimuli/testStimuliCube/6u_s_2_s.png,Stimuli/testStimuliCube/6u_s_2_s.png,0,9,,,,,,,,,s,3D
,,,,,,,20,male,B,2020-05-24_15h04.19.714,Remembering_Displays,2020.1.2,MacIntel,60,9,1,0.423,1,1,0.71952,0,10,10,0,1,Stimuli/testStimuliCube/6u_s_1.png,Stimuli/testStimuliCube/6u_s_1.png,0,9,,,,,,,,,c,3D
,,,,,,,20,male,B,2020-05-24_15h04.19.714,Remembering_Displays,2020.1.2,MacIntel,60,9,0,0.4895,1,1,0.809525,0,11,11,7,1,Stimuli/testStimuliCube/6u_s_4.png,Stimuli/testStimuliCube/6u_d_4.png,1,1,,,,,,,,,c,3D
,,,,,,,20,male,B,2020-05-24_15h04.19.714,Remembering_Displays,2020.1.2,MacIntel,60,1,1,0.77472,1,0,0.559295,0,12,12,15,1,Stimuli/testStimuliCube/6u_s_2_s.png,Stimuli/testStimuliCube/6u_d_2_s.png,1,1,,,,,,,,,s,3D
,,,,,,,20,male,B,2020-05-24_15h04.19.714,Remembering_Displays,2020.1.2,MacIntel,60,9,1,0.822285,9,0,0.90914,0,13,13,8,1,Stimuli/testStimuliCube/6u_s_5.png,Stimuli/testStimuliCube/6u_s_5.png,0,9,,,,,,,,,c,3D
,,,,,,,20,male,B,2020-05-24_15h04.19.714,Remembering_Displays,2020.1.2,MacIntel,60,9,0,0.642985,9,1,0.738115,0,14,14,9,1,Stimuli/testStimuliCube/6u_s_5.png,Stimuli/testStimuliCube/6u_d_5.png,1,1,,,,,,,,,c,3D
,,,,,,,20,male,B,2020-05-24_15h04.19.714,Remembering_Displays,2020.1.2,MacIntel,60,9,1,0.667915,9,1,1.80314,0,15,15,12,1,Stimuli/testStimuliCube/6u_s_1_s.png,Stimuli/testStimuliCube/6u_s_1_s.png,0,9,,,,,,,,,s,3D
,,,,,,,20,male,B,2020-05-24_15h04.19.714,Remembering_Displays,2020.1.2,MacIntel,60,9,1,0.721595,9,0,0.303135,0,16,16,18,1,Stimuli/testStimuliCube/6u_s_4_s.png,Stimuli/testStimuliCube/6u_s_4_s.png,0,9,,,,,,,,,s,3D
,,,,,,,20,male,B,2020-05-24_15h04.19.714,Remembering_Displays,2020.1.2,MacIntel,60,9,1,0.62446,1,1,0.493335,0,17,17,10,1,Stimuli/testStimuliCube/6u_s_6.png,Stimuli/testStimuliCube/6u_s_6.png,0,9,,,,,,,,,c,3D
,,,,,,,20,male,B,2020-05-24_15h04.19.714,Remembering_Displays,2020.1.2,MacIntel,60,,0,,9,1,1.36093,0,18,18,4,1,Stimuli/testStimuliCube/6u_s_3.png,Stimuli/testStimuliCube/6u_s_3.png,0,9,,,,,,,,,c,3D
,,,,,,,20,male,B,2020-05-24_15h04.19.714,Remembering_Displays,2020.1.2,MacIntel,60,9,1,0.40411,1,0,0.52082,0,19,19,20,1,Stimuli/testStimuliCube/6u_s_5_s.png,Stimuli/testStimuliCube/6u_s_5_s.png,0,9,,,,,,,,,s,3D
,,,,,,,20,male,B,2020-05-24_15h04.19.714,Remembering_Displays,2020.1.2,MacIntel,60,1,1,0.55769,1,1,0.623315,0,20,20,5,1,Stimuli/testStimuliCube/6u_s_3.png,Stimuli/testStimuliCube/6u_d_3.png,1,1,,,,,,,,,c,3D
,,,,,,,20,male,B,2020-05-24_15h04.19.714,Remembering_Displays,2020.1.2,MacIntel,60,1,1,0.810845,9,1,0.7171,0,21,21,11,1,Stimuli/testStimuliCube/6u_s_6.png,Stimuli/testStimuliCube/6u_d_6.png,1,1,,,,,,,,,c,3D
,,,,,,,20,male,B,2020-05-24_15h04.19.714,Remembering_Displays,2020.1.2,MacIntel,60,9,1,0.57203,9,1,0.428095,0,22,22,22,1,Stimuli/testStimuliCube/6u_s_6_s.png,Stimuli/testStimuliCube/6u_s_6_s.png,0,9,,,,,,,,,s,3D
,,,,,,,20,male,B,2020-05-24_15h04.19.714,Remembering_Displays,2020.1.2,MacIntel,60,1,1,0.583215,1,1,0.526905,0,23,23,13,1,Stimuli/testStimuliCube/6u_s_1_s.png,Stimuli/testStimuliCube/6u_d_1_s.png,1,1,,,,,,,,,s,3D
,,,,,,,20,male,B,2020-05-24_15h04.19.714,Remembering_Displays,2020.1.2,MacIntel,60,,,,,,,,,,,,,,,,0,1,1,1,1,Stimuli/trialListCubes1.xlsx,Instructions/instr_19.png,Progress: 24 of 192 trials completed,,
,,,,,,,20,male,B,2020-05-24_15h04.19.714,Remembering_Displays,2020.1.2,MacIntel,60,1,1,0.726435,9,0,1.420495,0,0,0,6,1,Stimuli/practiceStimuliSquare/practice3_s.png,Stimuli/practiceStimuliSquare/practice3_d.png,1,1,,,,,,,,,,
,,,,,,,20,male,B,2020-05-24_15h04.19.714,Remembering_Displays,2020.1.2,MacIntel,60,9,1,0.45579,1,1,0.409475,0,1,1,5,1,Stimuli/practiceStimuliSquare/practice2_s.png,Stimuli/practiceStimuliSquare/practice2_s.png,0,9,,,,,,,,,,
,,,,,,,20,male,B,2020-05-24_15h04.19.714,Remembering_Displays,2020.1.2,MacIntel,60,9,1,0.68878,9,1,0.485545,0,2,2,7,1,Stimuli/practiceStimuliSquare/practice4_s.png,Stimuli/practiceStimuliSquare/practice4_s.png,0,9,,,,,,,,,,
,,,,,,,20,male,B,2020-05-24_15h04.19.714,Remembering_Displays,2020.1.2,MacIntel,60,9,1,0.448755,1,1,0.35557,0,3,3,2,1,Stimuli/practiceStimuliSquare/practice3_s.png,Stimuli/practiceStimuliSquare/practice3_s.png,0,9,,,,,,,,,,
,,,,,,,20,male,B,2020-05-24_15h04.19.714,Remembering_Displays,2020.1.2,MacIntel,60,1,1,0.507955,9,1,0.68373,0,4,4,1,1,Stimuli/practiceStimuliSquare/practice2_s.png,Stimuli/practiceStimuliSquare/practice2_d.png,1,1,,,,,,,,,,
,,,,,,,20,male,B,2020-05-24_15h04.19.714,Remembering_Displays,2020.1.2,MacIntel,60,9,1,0.40043,9,1,0.570475,0,5,5,0,1,Stimuli/practiceStimuliSquare/practice1_s.png,Stimuli/practiceStimuliSquare/practice1_s.png,0,9,,,,,,,,,,
,,,,,,,20,male,B,2020-05-24_15h04.19.714,Remembering_Displays,2020.1.2,MacIntel,60,1,1,0.505155,9,1,0.444575,0,6,6,3,1,Stimuli/practiceStimuliSquare/practice4_s.png,Stimuli/practiceStimuliSquare/practice4_d.png,1,1,,,,,,,,,,
,,,,,,,20,male,B,2020-05-24_15h04.19.714,Remembering_Displays,2020.1.2,MacIntel,60,1,1,0.540895,9,1,0.5781,0,7,7,4,1,Stimuli/practiceStimuliSquare/practice1_s.png,Stimuli/practiceStimuliSquare/practice1_d.png,1,1,,,,,,,,,,
,,,,,,,20,male,B,2020-05-24_15h04.19.714,Remembering_Displays,2020.1.2,MacIntel,60,,,,,,,,,,,,,,,,0,2,2,2,1,Stimuli/practiceListSquares.xlsx,Instructions/instr_practice_A.png,Practice trials completed,,
,,,,,,,20,male,B,2020-05-24_15h04.19.714,Remembering_Displays,2020.1.2,MacIntel,60,9,0,0.69387,1,1,0.72226,0,0,0,1,1,Stimuli/testStimuliSquare/6u_s_19_2D.png,Stimuli/testStimuliSquare/6u_d_19_2D.png,1,1,,,,,,,,,c,2D
,,,,,,,20,male,B,2020-05-24_15h04.19.714,Remembering_Displays,2020.1.2,MacIntel,60,9,1,0.37494,9,1,0.45138,0,1,1,14,1,Stimuli/testStimuliSquare/6u_s_20_s_2D.png,Stimuli/testStimuliSquare/6u_s_20_s_2D.png,0,9,,,,,,,,,s,2D
,,,,,,,20,male,B,2020-05-24_15h04.19.714,Remembering_Displays,2020.1.2,MacIntel,60,1,0,0.686155,9,1,0.33646,0,2,2,4,1,Stimuli/testStimuliSquare/6u_s_21_2D.png,Stimuli/testStimuliSquare/6u_s_21_2D.png,0,9,,,,,,,,,c,2D
,,,,,,,20,male,B,2020-05-24_15h04.19.714,Remembering_Displays,2020.1.2,MacIntel,60,9,1,0.43469,9,1,0.443985,0,3,3,6,1,Stimuli/testStimuliSquare/6u_s_22_2D.png,Stimuli/testStimuliSquare/6u_s_22_2D.png,0,9,,,,,,,,,c,2D
,,,,,,,20,male,B,2020-05-24_15h04.19.714,Remembering_Displays,2020.1.2,MacIntel,60,1,1,0.441925,9,1,0.32195,0,4,4,17,1,Stimuli/testStimuliSquare/6u_s_21_s_2D.png,Stimuli/testStimuliSquare/6u_d_21_s_2D.png,1,1,,,,,,,,,s,2D
,,,,,,,20,male,B,2020-05-24_15h04.19.714,Remembering_Displays,2020.1.2,MacIntel,60,1,1,0.510535,9,0,0.339635,0,5,5,3,1,Stimuli/testStimuliSquare/6u_s_20_2D.png,Stimuli/testStimuliSquare/6u_d_20_2D.png,1,1,,,,,,,,,c,2D
,,,,,,,20,male,B,2020-05-24_15h04.19.714,Remembering_Displays,2020.1.2,MacIntel,60,1,1,0.4226,1,1,0.88652,0,6,6,5,1,Stimuli/testStimuliSquare/6u_s_21_2D.png,Stimuli/testStimuliSquare/6u_d_21_2D.png,1,1,,,,,,,,,c,2D
,,,,,,,20,male,B,2020-05-24_15h04.19.714,Remembering_Displays,2020.1.2,MacIntel,60,9,1,0.50254,9,1,0.42041,0,7,7,0,1,Stimuli/testStimuliSquare/6u_s_19_2D.png,Stimuli/testStimuliSquare/6u_s_19_2D.png,0,9,,,,,,,,,c,2D
,,,,,,,20,male,B,2020-05-24_15h04.19.714,Remembering_Displays,2020.1.2,MacIntel,60,1,1,0.462465,9,1,0.39135,0,8,8,15,1,Stimuli/testStimuliSquare/6u_s_20_s_2D.png,Stimuli/testStimuliSquare/6u_d_20_s_2D.png,1,1,,,,,,,,,s,2D
,,,,,,,20,male,B,2020-05-24_15h04.19.714,Remembering_Displays,2020.1.2,MacIntel,60,9,0,0.440525,9,1,0.606945,0,9,9,11,1,Stimuli/testStimuliSquare/6u_s_24_2D.png,Stimuli/testStimuliSquare/6u_d_24_2D.png,1,1,,,,,,,,,c,2D
,,,,,,,20,male,B,2020-05-24_15h04.19.714,Remembering_Displays,2020.1.2,MacIntel,60,9,1,0.46753,9,1,0.3532,0,10,10,2,1,Stimuli/testStimuliSquare/6u_s_20_2D.png,Stimuli/testStimuliSquare/6u_s_20_2D.png,0,9,,,,,,,,,c,2D
,,,,,,,20,male,B,2020-05-24_15h04.19.714,Remembering_Displays,2020.1.2,MacIntel,60,1,1,0.45885,9,1,0.457085,0,11,11,19,1,Stimuli/testStimuliSquare/6u_s_22_s_2D.png,Stimuli/testStimuliSquare/6u_d_22_s_2D.png,1,1,,,,,,,,,s,2D
,,,,,,,20,male,B,2020-05-24_15h04.19.714,Remembering_Displays,2020.1.2,MacIntel,60,9,1,0.384285,9,0,0.35699,0,12,12,10,1,Stimuli/testStimuliSquare/6u_s_24_2D.png,Stimuli/testStimuliSquare/6u_s_24_2D.png,0,9,,,,,,,,,c,2D
,,,,,,,20,male,B,2020-05-24_15h04.19.714,Remembering_Displays,2020.1.2,MacIntel,60,9,0,0.44205,9,0,0.419025,0,13,13,21,1,Stimuli/testStimuliSquare/6u_s_23_s_2D.png,Stimuli/testStimuliSquare/6u_d_23_s_2D.png,1,1,,,,,,,,,s,2D
,,,,,,,20,male,B,2020-05-24_15h04.19.714,Remembering_Displays,2020.1.2,MacIntel,60,9,1,0.45838,1,1,0.3901,0,14,14,16,1,Stimuli/testStimuliSquare/6u_s_21_s_2D.png,Stimuli/testStimuliSquare/6u_s_21_s_2D.png,0,9,,,,,,,,,s,2D
,,,,,,,20,male,B,2020-05-24_15h04.19.714,Remembering_Displays,2020.1.2,MacIntel,60,9,1,0.388745,1,1,0.51853,0,15,15,8,1,Stimuli/testStimuliSquare/6u_s_23_2D.png,Stimuli/testStimuliSquare/6u_s_23_2D.png,0,9,,,,,,,,,c,2D
,,,,,,,20,male,B,2020-05-24_15h04.19.714,Remembering_Displays,2020.1.2,MacIntel,60,1,1,0.64612,9,1,0.53733,0,16,16,23,1,Stimuli/testStimuliSquare/6u_s_24_s_2D.png,Stimuli/testStimuliSquare/6u_d_24_s_2D.png,1,1,,,,,,,,,s,2D
,,,,,,,20,male,B,2020-05-24_15h04.19.714,Remembering_Displays,2020.1.2,MacIntel,60,1,1,0.54441,9,0,0.457195,0,17,17,13,1,Stimuli/testStimuliSquare/6u_s_19_s_2D.png,Stimuli/testStimuliSquare/6u_d_19_s_2D.png,1,1,,,,,,,,,s,2D
,,,,,,,20,male,B,2020-05-24_15h04.19.714,Remembering_Displays,2020.1.2,MacIntel,60,1,1,0.526845,1,1,0.711065,0,18,18,7,1,Stimuli/testStimuliSquare/6u_s_22_2D.png,Stimuli/testStimuliSquare/6u_d_22_2D.png,1,1,,,,,,,,,c,2D
,,,,,,,20,male,B,2020-05-24_15h04.19.714,Remembering_Displays,2020.1.2,MacIntel,60,1,0,0.506225,9,1,0.42176,0,19,19,20,1,Stimuli/testStimuliSquare/6u_s_23_s_2D.png,Stimuli/testStimuliSquare/6u_s_23_s_2D.png,0,9,,,,,,,,,s,2D
,,,,,,,20,male,B,2020-05-24_15h04.19.714,Remembering_Displays,2020.1.2,MacIntel,60,1,0,0.68945,9,0,0.40492,0,20,20,18,1,Stimuli/testStimuliSquare/6u_s_22_s_2D.png,Stimuli/testStimuliSquare/6u_s_22_s_2D.png,0,9,,,,,,,,,s,2D
,,,,,,,20,male,B,2020-05-24_15h04.19.714,Remembering_Displays,2020.1.2,MacIntel,60,9,1,0.34086,9,1,0.30588,0,21,21,12,1,Stimuli/testStimuliSquare/6u_s_19_s_2D.png,Stimuli/testStimuliSquare/6u_s_19_s_2D.png,0,9,,,,,,,,,s,2D
,,,,,,,20,male,B,2020-05-24_15h04.19.714,Remembering_Displays,2020.1.2,MacIntel,60,9,0,0.39513,9,1,0.618815,0,22,22,9,1,Stimuli/testStimuliSquare/6u_s_23_2D.png,Stimuli/testStimuliSquare/6u_d_23_2D.png,1,1,,,,,,,,,c,2D
,,,,,,,20,male,B,2020-05-24_15h04.19.714,Remembering_Displays,2020.1.2,MacIntel,60,9,1,0.82409,9,1,0.7722,0,23,23,22,1,Stimuli/testStimuliSquare/6u_s_24_s_2D.png,Stimuli/testStimuliSquare/6u_s_24_s_2D.png,0,9,,,,,,,,,s,2D
,,,,,,,20,male,B,2020-05-24_15h04.19.714,Remembering_Displays,2020.1.2,MacIntel,60,,,,,,,,,,,,,,,,0,3,3,3,1,Stimuli/trialListSquares4.xlsx,Instructions/instr_18.png,Progress: 48 of 192 trials completed,,
,,,,,,,20,male,B,2020-05-24_15h04.19.714,Remembering_Displays,2020.1.2,MacIntel,60,9,1,0.65326,9,1,0.73822,0,0,0,18,1,Stimuli/testStimuliCube/6u_s_10_s.png,Stimuli/testStimuliCube/6u_s_10_s.png,0,9,,,,,,,,,s,3D
,,,,,,,20,male,B,2020-05-24_15h04.19.714,Remembering_Displays,2020.1.2,MacIntel,60,9,1,0.6344,9,1,0.4946,0,1,1,0,1,Stimuli/testStimuliCube/6u_s_7.png,Stimuli/testStimuliCube/6u_s_7.png,0,9,,,,,,,,,c,3D
,,,,,,,20,male,B,2020-05-24_15h04.19.714,Remembering_Displays,2020.1.2,MacIntel,60,9,1,0.400465,1,1,0.4176,0,2,2,12,1,Stimuli/testStimuliCube/6u_s_7_s.png,Stimuli/testStimuliCube/6u_s_7_s.png,0,9,,,,,,,,,s,3D
,,,,,,,20,male,B,2020-05-24_15h04.19.714,Remembering_Displays,2020.1.2,MacIntel,60,1,1,0.47578,1,0,0.706985,0,3,3,15,1,Stimuli/testStimuliCube/6u_s_8_s.png,Stimuli/testStimuliCube/6u_d_8_s.png,1,1,,,,,,,,,s,3D
,,,,,,,20,male,B,2020-05-24_15h04.19.714,Remembering_Displays,2020.1.2,MacIntel,60,9,0,0.435385,1,1,0.623775,0,4,4,19,1,Stimuli/testStimuliCube/6u_s_10_s.png,Stimuli/testStimuliCube/6u_d_10_s.png,1,1,,,,,,,,,s,3D
,,,,,,,20,male,B,2020-05-24_15h04.19.714,Remembering_Displays,2020.1.2,MacIntel,60,9,1,0.48532,1,1,0.62509,0,5,5,20,1,Stimuli/testStimuliCube/6u_s_11_s.png,Stimuli/testStimuliCube/6u_s_11_s.png,0,9,,,,,,,,,s,3D
,,,,,,,20,male,B,2020-05-24_15h04.19.714,Remembering_Displays,2020.1.2,MacIntel,60,9,0,0.45855,1,1,0.73414,0,6,6,9,1,Stimuli/testStimuliCube/6u_s_11.png,Stimuli/testStimuliCube/6u_d_11.png,1,1,,,,,,,,,c,3D
,,,,,,,20,male,B,2020-05-24_15h04.19.714,Remembering_Displays,2020.1.2,MacIntel,60,9,0,0.34201,1,1,0.359455,0,7,7,23,1,Stimuli/testStimuliCube/6u_s_12_s.png,Stimuli/testStimuliCube/6u_d_12_s.png,1,1,,,,,,,,,s,3D
,,,,,,,20,male,B,2020-05-24_15h04.19.714,Remembering_Displays,2020.1.2,MacIntel,60,9,0,0.378415,9,0,0.79113,0,8,8,17,1,Stimuli/testStimuliCube/6u_s_9_s.png,Stimuli/testStimuliCube/6u_d_9_s.png,1,1,,,,,,,,,s,3D
,,,,,,,20,male,B,2020-05-24_15h04.19.714,Remembering_Displays,2020.1.2,MacIntel,60,1,1,0.490035,9,0,0.74195,0,9,9,3,1,Stimuli/testStimuliCube/6u_s_8.png,Stimuli/testStimuliCube/6u_d_8.png,1,1,,,,,,,,,c,3D
,,,,,,,20,male,B,2020-05-24_15h04.19.714,Remembering_Displays,2020.1.2,MacIntel,60,1,1,0.479415,9,1,0.87019,0,10,10,5,1,Stimuli/testStimuliCube/6u_s_9.png,Stimuli/testStimuliCube/6u_d_9.png,1,1,,,,,,,,,c,3D
,,,,,,,20,male,B,2020-05-24_15h04.19.714,Remembering_Displays,2020.1.2,MacIntel,60,9,1,0.454,1,1,0.35978,0,11,11,14,1,Stimuli/testStimuliCube/6u_s_8_s.png,Stimuli/testStimuliCube/6u_s_8_s.png,0,9,,,,,,,,,s,3D
,,,,,,,20,male,B,2020-05-24_15h04.19.714,Remembering_Displays,2020.1.2,MacIntel,60,9,0,0.766115,1,1,0.369955,0,12,12,21,1,Stimuli/testStimuliCube/6u_s_11_s.png,Stimuli/testStimuliCube/6u_d_11_s.png,1,1,,,,,,,,,s,3D
,,,,,,,20,male,B,2020-05-24_15h04.19.714,Remembering_Displays,2020.1.2,MacIntel,60,1,1,0.423605,9,0,0.741445,0,13,13,1,1,Stimuli/testStimuliCube/6u_s_7.png,Stimuli/testStimuliCube/6u_d_7.png,1,1,,,,,,,,,c,3D
,,,,,,,20,male,B,2020-05-24_15h04.19.714,Remembering_Displays,2020.1.2,MacIntel,60,1,1,0.544945,9,1,0.7474,0,14,14,11,1,Stimuli/testStimuliCube/6u_s_12.png,Stimuli/testStimuliCube/6u_d_12.png,1,1,,,,,,,,,c,3D
,,,,,,,20,male,B,2020-05-24_15h04.19.714,Remembering_Displays,2020.1.2,MacIntel,60,9,1,0.58578,1,1,0.703365,0,15,15,6,1,Stimuli/testStimuliCube/6u_s_10.png,Stimuli/testStimuliCube/6u_s_10.png,0,9,,,,,,,,,c,3D
,,,,,,,20,male,B,2020-05-24_15h04.19.714,Remembering_Displays,2020.1.2,MacIntel,60,1,1,0.509805,1,1,0.75231,0,16,16,13,1,Stimuli/testStimuliCube/6u_s_7_s.png,Stimuli/testStimuliCube/6u_d_7_s.png,1,1,,,,,,,,,s,3D
,,,,,,,20,male,B,2020-05-24_15h04.19.714,Remembering_Displays,2020.1.2,MacIntel,60,9,1,0.40571,1,1,0.70239,0,17,17,22,1,Stimuli/testStimuliCube/6u_s_12_s.png,Stimuli/testStimuliCube/6u_s_12_s.png,0,9,,,,,,,,,s,3D
,,,,,,,20,male,B,2020-05-24_15h04.19.714,Remembering_Displays,2020.1.2,MacIntel,60,1,1,0.51111,9,0,0.778665,0,18,18,7,1,Stimuli/testStimuliCube/6u_s_10.png,Stimuli/testStimuliCube/6u_d_10.png,1,1,,,,,,,,,c,3D
,,,,,,,20,male,B,2020-05-24_15h04.19.714,Remembering_Displays,2020.1.2,MacIntel,60,9,1,0.470915,9,1,0.77829,0,19,19,8,1,Stimuli/testStimuliCube/6u_s_11.png,Stimuli/testStimuliCube/6u_s_11.png,0,9,,,,,,,,,c,3D
,,,,,,,20,male,B,2020-05-24_15h04.19.714,Remembering_Displays,2020.1.2,MacIntel,60,9,1,0.45281,9,1,0.42156,0,20,20,16,1,Stimuli/testStimuliCube/6u_s_9_s.png,Stimuli/testStimuliCube/6u_s_9_s.png,0,9,,,,,,,,,s,3D
,,,,,,,20,male,B,2020-05-24_15h04.19.714,Remembering_Displays,2020.1.2,MacIntel,60,9,1,0.53552,9,0,0.37264,0,21,21,2,1,Stimuli/testStimuliCube/6u_s_8.png,Stimuli/testStimuliCube/6u_s_8.png,0,9,,,,,,,,,c,3D
,,,,,,,20,male,B,2020-05-24_15h04.19.714,Remembering_Displays,2020.1.2,MacIntel,60,9,1,0.435465,9,1,0.907935,0,22,22,10,1,Stimuli/testStimuliCube/6u_s_12.png,Stimuli/testStimuliCube/6u_s_12.png,0,9,,,,,,,,,c,3D
,,,,,,,20,male,B,2020-05-24_15h04.19.714,Remembering_Displays,2020.1.2,MacIntel,60,9,1,0.58947,1,1,0.78818,0,23,23,4,1,Stimuli/testStimuliCube/6u_s_9.png,Stimuli/testStimuliCube/6u_s_9.png,0,9,,,,,,,,,c,3D
,,,,,,,20,male,B,2020-05-24_15h04.19.714,Remembering_Displays,2020.1.2,MacIntel,60,,,,,,,,,,,,,,,,0,4,4,4,1,Stimuli/trialListCubes2.xlsx,Instructions/instr_19.png,Progress: 72 of 192 trials completed,,
,,,,,,,20,male,B,2020-05-24_15h04.19.714,Remembering_Displays,2020.1.2,MacIntel,60,1,1,0.48224,1,1,0.48989,0,0,0,17,1,Stimuli/testStimuliSquare/6u_s_15_s_2D.png,Stimuli/testStimuliSquare/6u_d_15_s_2D.png,1,1,,,,,,,,,s,2D
,,,,,,,20,male,B,2020-05-24_15h04.19.714,Remembering_Displays,2020.1.2,MacIntel,60,9,0,0.554915,9,1,0.72275,0,1,1,19,1,Stimuli/testStimuliSquare/6u_s_16_s_2D.png,Stimuli/testStimuliSquare/6u_d_16_s_2D.png,1,1,,,,,,,,,s,2D
,,,,,,,20,male,B,2020-05-24_15h04.19.714,Remembering_Displays,2020.1.2,MacIntel,60,1,1,0.440945,9,1,0.60883,0,2,2,3,1,Stimuli/testStimuliSquare/6u_s_14_2D.png,Stimuli/testStimuliSquare/6u_d_14_2D.png,1,1,,,,,,,,,c,2D
,,,,,,,20,male,B,2020-05-24_15h04.19.714,Remembering_Displays,2020.1.2,MacIntel,60,9,1,0.56874,1,1,0.43823,0,3,3,12,1,Stimuli/testStimuliSquare/6u_s_13_s_2D.png,Stimuli/testStimuliSquare/6u_s_13_s_2D.png,0,9,,,,,,,,,s,2D
,,,,,,,20,male,B,2020-05-24_15h04.19.714,Remembering_Displays,2020.1.2,MacIntel,60,9,1,0.367705,1,1,0.57275,0,4,4,18,1,Stimuli/testStimuliSquare/6u_s_16_s_2D.png,Stimuli/testStimuliSquare/6u_s_16_s_2D.png,0,9,,,,,,,,,s,2D
,,,,,,,20,male,B,2020-05-24_15h04.19.714,Remembering_Displays,2020.1.2,MacIntel,60,9,1,0.336325,9,1,0.42332,0,5,5,8,1,Stimuli/testStimuliSquare/6u_s_17_2D.png,Stimuli/testStimuliSquare/6u_s_17_2D.png,0,9,,,,,,,,,c,2D
,,,,,,,20,male,B,2020-05-24_15h04.19.714,Remembering_Displays,2020.1.2,MacIntel,60,9,0,0.57761,1,1,0.476475,0,6,6,1,1,Stimuli/testStimuliSquare/6u_s_13_2D.png,Stimuli/testStimuliSquare/6u_d_13_2D.png,1,1,,,,,,,,,c,2D
,,,,,,,20,male,B,2020-05-24_15h04.19.714,Remembering_Displays,2020.1.2,MacIntel,60,9,1,0.520845,9,1,0.320235,0,7,7,14,1,Stimuli/testStimuliSquare/6u_s_14_s_2D.png,Stimuli/testStimuliSquare/6u_s_14_s_2D.png,0,9,,,,,,,,,s,2D
,,,,,,,20,male,B,2020-05-24_15h04.19.714,Remembering_Displays,2020.1.2,MacIntel,60,9,1,0.67138,1,1,0.511245,0,8,8,4,1,Stimuli/testStimuliSquare/6u_s_15_2D.png,Stimuli/testStimuliSquare/6u_s_15_2D.png,0,9,,,,,,,,,c,2D
,,,,,,,20,male,B,2020-05-24_15h04.19.714,Remembering_Displays,2020.1.2,MacIntel,60,9,1,1.082745,1,1,0.51023,0,9,9,20,1,Stimuli/testStimuliSquare/6u_s_17_s_2D.png,Stimuli/testStimuliSquare/6u_s_17_s_2D.png,0,9,,,,,,,,,s,2D
,,,,,,,20,male,B,2020-05-24_15h04.19.714,Remembering_Displays,2020.1.2,MacIntel,60,1,1,0.56436,9,1,0.55486,0,10,10,21,1,Stimuli/testStimuliSquare/6u_s_17_s_2D.png,Stimuli/testStimuliSquare/6u_d_17_s_2D.png,1,1,,,,,,,,,s,2D
,,,,,,,20,male,B,2020-05-24_15h04.19.714,Remembering_Displays,2020.1.2,MacIntel,60,9,0,0.347965,1,1,0.677465,0,11,11,11,1,Stimuli/testStimuliSquare/6u_s_18_2D.png,Stimuli/testStimuliSquare/6u_d_18_2D.png,1,1,,,,,,,,,c,2D
,,,,,,,20,male,B,2020-05-24_15h04.19.714,Remembering_Displays,2020.1.2,MacIntel,60,9,1,0.46906,1,1,1.170725,0,12,12,6,1,Stimuli/testStimuliSquare/6u_s_16_2D.png,Stimuli/testStimuliSquare/6u_s_16_2D.png,0,9,,,,,,,,,c,2D
,,,,,,,20,male,B,2020-05-24_15h04.19.714,Remembering_Displays,2020.1.2,MacIntel,60,9,1,0.35501,1,1,0.470855,0,13,13,16,1,Stimuli/testStimuliSquare/6u_s_15_s_2D.png,Stimuli/testStimuliSquare/6u_s_15_s_2D.png,0,9,,,,,,,,,s,2D
,,,,,,,20,male,B,2020-05-24_15h04.19.714,Remembering_Displays,2020.1.2,MacIntel,60,9,0,0.439385,1,1,0.789115,0,14,14,9,1,Stimuli/testStimuliSquare/6u_s_17_2D.png,Stimuli/testStimuliSquare/6u_d_17_2D.png,1,1,,,,,,,,,c,2D
,,,,,,,20,male,B,2020-05-24_15h04.19.714,Remembering_Displays,2020.1.2,MacIntel,60,9,1,0.868525,1,0,0.56046,0,15,15,2,1,Stimuli/testStimuliSquare/6u_s_14_2D.png,Stimuli/testStimuliSquare/6u_s_14_2D.png,0,9,,,,,,,,,c,2D
,,,,,,,20,male,B,2020-05-24_15h04.19.714,Remembering_Displays,2020.1.2,MacIntel,60,1,1,0.875955,9,0,0.77715,0,16,16,15,1,Stimuli/testStimuliSquare/6u_s_14_s_2D.png,Stimuli/testStimuliSquare/6u_d_14_s_2D.png,1,1,,,,,,,,,s,2D
,,,,,,,20,male,B,2020-05-24_15h04.19.714,Remembering_Displays,2020.1.2,MacIntel,60,1,1,1.105465,1,0,1.056245,0,17,17,7,1,Stimuli/testStimuliSquare/6u_s_16_2D.png,Stimuli/testStimuliSquare/6u_d_16_2D.png,1,1,,,,,,,,,c,2D
,,,,,,,20,male,B,2020-05-24_15h04.19.714,Remembering_Displays,2020.1.2,MacIntel,60,9,1,1.122455,9,1,0.93909,0,18,18,22,1,Stimuli/testStimuliSquare/6u_s_18_s_2D.png,Stimuli/testStimuliSquare/6u_s_18_s_2D.png,0,9,,,,,,,,,s,2D
,,,,,,,20,male,B,2020-05-24_15h04.19.714,Remembering_Displays,2020.1.2,MacIntel,60,9,0,0.48058,9,0,0.64086,0,19,19,23,1,Stimuli/testStimuliSquare/6u_s_18_s_2D.png,Stimuli/testStimuliSquare/6u_d_18_s_2D.png,1,1,,,,,,,,,s,2D
,,,,,,,20,male,B,2020-05-24_15h04.19.714,Remembering_Displays,2020.1.2,MacIntel,60,9,1,0.472905,9,1,0.35512,0,20,20,0,1,Stimuli/testStimuliSquare/6u_s_13_2D.png,Stimuli/testStimuliSquare/6u_s_13_2D.png,0,9,,,,,,,,,c,2D
,,,,,,,20,male,B,2020-05-24_15h04.19.714,Remembering_Displays,2020.1.2,MacIntel,60,9,1,0.636395,1,1,1.31271,0,21,21,10,1,Stimuli/testStimuliSquare/6u_s_18_2D.png,Stimuli/testStimuliSquare/6u_s_18_2D.png,0,9,,,,,,,,,c,2D
,,,,,,,20,male,B,2020-05-24_15h04.19.714,Remembering_Displays,2020.1.2,MacIntel,60,9,0,0.46002,1,1,0.41078,0,22,22,13,1,Stimuli/testStimuliSquare/6u_s_13_s_2D.png,Stimuli/testStimuliSquare/6u_d_13_s_2D.png,1,1,,,,,,,,,s,2D
,,,,,,,20,male,B,2020-05-24_15h04.19.714,Remembering_Displays,2020.1.2,MacIntel,60,1,1,0.43941,1,0,0.87344,0,23,23,5,1,Stimuli/testStimuliSquare/6u_s_15_2D.png,Stimuli/testStimuliSquare/6u_d_15_2D.png,1,1,,,,,,,,,c,2D
,,,,,,,20,male,B,2020-05-24_15h04.19.714,Remembering_Displays,2020.1.2,MacIntel,60,,,,,,,,,,,,,,,,0,5,5,5,1,Stimuli/trialListSquares3.xlsx,Instructions/instr_18.png,Progress: 96 of 192 trials completed,,
,,,,,,,20,male,B,2020-05-24_15h04.19.714,Remembering_Displays,2020.1.2,MacIntel,60,9,1,0.635965,1,0,1.83975,0,0,0,14,1,Stimuli/testStimuliCube/6u_s_14_s.png,Stimuli/testStimuliCube/6u_s_14_s.png,0,9,,,,,,,,,s,3D
,,,,,,,20,male,B,2020-05-24_15h04.19.714,Remembering_Displays,2020.1.2,MacIntel,60,1,1,0.64439,1,1,0.4044,0,1,1,5,1,Stimuli/testStimuliCube/6u_s_15.png,Stimuli/testStimuliCube/6u_d_15.png,1,1,,,,,,,,,c,3D
,,,,,,,20,male,B,2020-05-24_15h04.19.714,Remembering_Displays,2020.1.2,MacIntel,60,1,1,0.64863,1,0,0.43844,0,2,2,11,1,Stimuli/testStimuliCube/6u_s_18.png,Stimuli/testStimuliCube/6u_d_18.png,1,1,,,,,,,,,c,3D
,,,,,,,20,male,B,2020-05-24_15h04.19.714,Remembering_Displays,2020.1.2,MacIntel,60,1,1,0.429025,9,0,0.477165,0,3,3,3,1,Stimuli/testStimuliCube/6u_s_14.png,Stimuli/testStimuliCube/6u_d_14.png,1,1,,,,,,,,,c,3D
,,,,,,,20,male,B,2020-05-24_15h04.19.714,Remembering_Displays,2020.1.2,MacIntel,60,1,0,0.7338,1,1,0.81995,0,4,4,18,1,Stimuli/testStimuliCube/6u_s_16_s.png,Stimuli/testStimuliCube/6u_s_16_s.png,0,9,,,,,,,,,s,3D
,,,,,,,20,male,B,2020-05-24_15h04.19.714,Remembering_Displays,2020.1.2,MacIntel,60,9,1,0.672535,1,1,0.38967,0,5,5,2,1,Stimuli/testStimuliCube/6u_s_14.png,Stimuli/testStimuliCube/6u_s_14.png,0,9,,,,,,,,,c,3D
,,,,,,,20,male,B,2020-05-24_15h04.19.714,Remembering_Displays,2020.1.2,MacIntel,60,9,1,0.38925,1,1,0.570235,0,6,6,12,1,Stimuli/testStimuliCube/6u_s_13_s.png,Stimuli/testStimuliCube/6u_s_13_s.png,0,9,,,,,,,,,s,3D
,,,,,,,20,male,B,2020-05-24_15h04.19.714,Remembering_Displays,2020.1.2,MacIntel,60,9,1,0.553545,1,1,0.576235,0,7,7,8,1,Stimuli/testStimuliCube/6u_s_17.png,Stimuli/testStimuliCube/6u_s_17.png,0,9,,,,,,,,,c,3D
,,,,,,,20,male,B,2020-05-24_15h04.19.714,Remembering_Displays,2020.1.2,MacIntel,60,9,1,0.46912,1,1,0.40876,0,8,8,20,1,Stimuli/testStimuliCube/6u_s_17_s.png,Stimuli/testStimuliCube/6u_s_17_s.png,0,9,,,,,,,,,s,3D
,,,,,,,20,male,B,2020-05-24_15h04.19.714,Remembering_Displays,2020.1.2,MacIntel,60,9,0,0.460405,1,1,0.356385,0,9,9,13,1,Stimuli/testStimuliCube/6u_s_13_s.png,Stimuli/testStimuliCube/6u_d_13_s.png,1,1,,,,,,,,,s,3D
,,,,,,,20,male,B,2020-05-24_15h04.19.714,Remembering_Displays,2020.1.2,MacIntel,60,9,1,0.4382,1,0,0.592905,0,10,10,22,1,Stimuli/testStimuliCube/6u_s_18_s.png,Stimuli/testStimuliCube/6u_s_18_s.png,0,9,,,,,,,,,s,3D
,,,,,,,20,male,B,2020-05-24_15h04.19.714,Remembering_Displays,2020.1.2,MacIntel,60,9,1,0.53584,1,1,0.43553,0,11,11,0,1,Stimuli/testStimuliCube/6u_s_13.png,Stimuli/testStimuliCube/6u_s_13.png,0,9,,,,,,,,,c,3D
,,,,,,,20,male,B,2020-05-24_15h04.19.714,Remembering_Displays,2020.1.2,MacIntel,60,1,1,0.61275,9,0,0.590085,0,12,12,19,1,Stimuli/testStimuliCube/6u_s_16_s.png,Stimuli/testStimuliCube/6u_d_16_s.png,1,1,,,,,,,,,s,3D
,,,,,,,20,male,B,2020-05-24_15h04.19.714,Remembering_Displays,2020.1.2,MacIntel,60,9,1,0.51751,1,0,0.739125,0,13,13,6,1,Stimuli/testStimuliCube/6u_s_16.png,Stimuli/testStimuliCube/6u_s_16.png,0,9,,,,,,,,,c,3D
,,,,,,,20,male,B,2020-05-24_15h04.19.714,Remembering_Displays,2020.1.2,MacIntel,60,1,1,0.47709,9,1,0.787665,0,14,14,17,1,Stimuli/testStimuliCube/6u_s_15_s.png,Stimuli/testStimuliCube/6u_d_15_s.png,1,1,,,,,,,,,s,3D
,,,,,,,20,male,B,2020-05-24_15h04.19.714,Remembering_Displays,2020.1.2,MacIntel,60,1,1,0.60648,1,0,0.505875,0,15,15,1,1,Stimuli/testStimuliCube/6u_s_13.png,Stimuli/testStimuliCube/6u_d_13.png,1,1,,,,,,,,,c,3D
,,,,,,,20,male,B,2020-05-24_15h04.19.714,Remembering_Displays,2020.1.2,MacIntel,60,9,1,0.37334,1,1,0.55893,0,16,16,16,1,Stimuli/testStimuliCube/6u_s_15_s.png,Stimuli/testStimuliCube/6u_s_15_s.png,0,9,,,,,,,,,s,3D
,,,,,,,20,male,B,2020-05-24_15h04.19.714,Remembering_Displays,2020.1.2,MacIntel,60,1,1,0.53997,9,0,1.252425,0,17,17,7,1,Stimuli/testStimuliCube/6u_s_16.png,Stimuli/testStimuliCube/6u_d_16.png,1,1,,,,,,,,,c,3D
,,,,,,,20,male,B,2020-05-24_15h04.19.714,Remembering_Displays,2020.1.2,MacIntel,60,1,1,0.95542,1,0,0.785745,0,18,18,9,1,Stimuli/testStimuliCube/6u_s_17.png,Stimuli/testStimuliCube/6u_d_17.png,1,1,,,,,,,,,c,3D
,,,,,,,20,male,B,2020-05-24_15h04.19.714,Remembering_Displays,2020.1.2,MacIntel,60,9,1,0.72561,9,1,0.83401,0,19,19,10,1,Stimuli/testStimuliCube/6u_s_18.png,Stimuli/testStimuliCube/6u_s_18.png,0,9,,,,,,,,,c,3D
,,,,,,,20,male,B,2020-05-24_15h04.19.714,Remembering_Displays,2020.1.2,MacIntel,60,9,0,0.49467,1,0,0.579605,0,20,20,23,1,Stimuli/testStimuliCube/6u_s_18_s.png,Stimuli/testStimuliCube/6u_d_18_s.png,1,1,,,,,,,,,s,3D
,,,,,,,20,male,B,2020-05-24_15h04.19.714,Remembering_Displays,2020.1.2,MacIntel,60,9,1,0.401985,1,1,0.672385,0,21,21,4,1,Stimuli/testStimuliCube/6u_s_15.png,Stimuli/testStimuliCube/6u_s_15.png,0,9,,,,,,,,,c,3D
,,,,,,,20,male,B,2020-05-24_15h04.19.714,Remembering_Displays,2020.1.2,MacIntel,60,1,1,0.460695,9,0,0.801775,0,22,22,21,1,Stimuli/testStimuliCube/6u_s_17_s.png,Stimuli/testStimuliCube/6u_d_17_s.png,1,1,,,,,,,,,s,3D
,,,,,,,20,male,B,2020-05-24_15h04.19.714,Remembering_Displays,2020.1.2,MacIntel,60,1,1,0.52459,9,1,0.689975,0,23,23,15,1,Stimuli/testStimuliCube/6u_s_14_s.png,Stimuli/testStimuliCube/6u_d_14_s.png,1,1,,,,,,,,,s,3D
,,,,,,,20,male,B,2020-05-24_15h04.19.714,Remembering_Displays,2020.1.2,MacIntel,60,,,,,,,,,,,,,,,,0,6,6,6,1,Stimuli/trialListCubes3.xlsx,Instructions/instr_19.png,Progress: 120 of 192 trials completed,,
,,,,,,,20,male,B,2020-05-24_15h04.19.714,Remembering_Displays,2020.1.2,MacIntel,60,9,1,0.52022,9,1,0.36805,0,0,0,2,1,Stimuli/testStimuliSquare/6u_s_8_2D.png,Stimuli/testStimuliSquare/6u_s_8_2D.png,0,9,,,,,,,,,c,2D
,,,,,,,20,male,B,2020-05-24_15h04.19.714,Remembering_Displays,2020.1.2,MacIntel,60,9,1,0.4864,9,1,0.353995,0,1,1,8,1,Stimuli/testStimuliSquare/6u_s_11_2D.png,Stimuli/testStimuliSquare/6u_s_11_2D.png,0,9,,,,,,,,,c,2D
,,,,,,,20,male,B,2020-05-24_15h04.19.714,Remembering_Displays,2020.1.2,MacIntel,60,1,1,0.87496,9,1,0.471475,0,2,2,15,1,Stimuli/testStimuliSquare/6u_s_8_s_2D.png,Stimuli/testStimuliSquare/6u_d_8_s_2D.png,1,1,,,,,,,,,s,2D
,,,,,,,20,male,B,2020-05-24_15h04.19.714,Remembering_Displays,2020.1.2,MacIntel,60,1,1,0.59454,9,1,0.570255,0,3,3,3,1,Stimuli/testStimuliSquare/6u_s_8_2D.png,Stimuli/testStimuliSquare/6u_d_8_2D.png,1,1,,,,,,,,,c,2D
,,,,,,,20,male,B,2020-05-24_15h04.19.714,Remembering_Displays,2020.1.2,MacIntel,60,9,1,0.73844,1,1,0.70076,0,4,4,22,1,Stimuli/testStimuliSquare/6u_s_12_s_2D.png,Stimuli/testStimuliSquare/6u_s_12_s_2D.png,0,9,,,,,,,,,s,2D
,,,,,,,20,male,B,2020-05-24_15h04.19.714,Remembering_Displays,2020.1.2,MacIntel,60,1,1,0.493675,9,0,0.35615,0,5,5,1,1,Stimuli/testStimuliSquare/6u_s_7_2D.png,Stimuli/testStimuliSquare/6u_d_7_2D.png,1,1,,,,,,,,,c,2D
,,,,,,,20,male,B,2020-05-24_15h04.19.714,Remembering_Displays,2020.1.2,MacIntel,60,9,1,0.417295,9,1,0.510105,0,6,6,0,1,Stimuli/testStimuliSquare/6u_s_7_2D.png,Stimuli/testStimuliSquare/6u_s_7_2D.png,0,9,,,,,,,,,c,2D
,,,,,,,20,male,B,2020-05-24_15h04.19.714,Remembering_Displays,2020.1.2,MacIntel,60,9,1,0.52144,1,1,0.43938,0,7,7,18,1,Stimuli/testStimuliSquare/6u_s_10_s_2D.png,Stimuli/testStimuliSquare/6u_s_10_s_2D.png,0,9,,,,,,,,,s,2D
,,,,,,,20,male,B,2020-05-24_15h04.19.714,Remembering_Displays,2020.1.2,MacIntel,60,1,1,0.80701,9,1,0.518785,0,8,8,17,1,Stimuli/testStimuliSquare/6u_s_9_s_2D.png,Stimuli/testStimuliSquare/6u_d_9_s_2D.png,1,1,,,,,,,,,s,2D
,,,,,,,20,male,B,2020-05-24_15h04.19.714,Remembering_Displays,2020.1.2,MacIntel,60,1,1,0.4803,1,0,0.622485,0,9,9,19,1,Stimuli/testStimuliSquare/6u_s_10_s_2D.png,Stimuli/testStimuliSquare/6u_d_10_s_2D.png,1,1,,,,,,,,,s,2D
,,,,,,,20,male,B,2020-05-24_15h04.19.714,Remembering_Displays,2020.1.2,MacIntel,60,9,1,0.46863,1,1,0.35651,0,10,10,10,1,Stimuli/testStimuliSquare/6u_s_12_2D.png,Stimuli/testStimuliSquare/6u_s_12_2D.png,0,9,,,,,,,,,c,2D
,,,,,,,20,male,B,2020-05-24_15h04.19.714,Remembering_Displays,2020.1.2,MacIntel,60,9,0,0.487515,9,0,0.887325,0,11,11,5,1,Stimuli/testStimuliSquare/6u_s_9_2D.png,Stimuli/testStimuliSquare/6u_d_9_2D.png,1,1,,,,,,,,,c,2D
,,,,,,,20,male,B,2020-05-24_15h04.19.714,Remembering_Displays,2020.1.2,MacIntel,60,9,1,0.43651,9,1,0.62077,0,12,12,14,1,Stimuli/testStimuliSquare/6u_s_8_s_2D.png,Stimuli/testStimuliSquare/6u_s_8_s_2D.png,0,9,,,,,,,,,s,2D
,,,,,,,20,male,B,2020-05-24_15h04.19.714,Remembering_Displays,2020.1.2,MacIntel,60,1,1,0.54177,1,1,0.567445,0,13,13,13,1,Stimuli/testStimuliSquare/6u_s_7_s_2D.png,Stimuli/testStimuliSquare/6u_d_7_s_2D.png,1,1,,,,,,,,,s,2D
,,,,,,,20,male,B,2020-05-24_15h04.19.714,Remembering_Displays,2020.1.2,MacIntel,60,1,1,0.623115,9,0,0.523985,0,14,14,23,1,Stimuli/testStimuliSquare/6u_s_12_s_2D.png,Stimuli/testStimuliSquare/6u_d_12_s_2D.png,1,1,,,,,,,,,s,2D
,,,,,,,20,male,B,2020-05-24_15h04.19.714,Remembering_Displays,2020.1.2,MacIntel,60,1,1,0.672905,9,1,0.78942,0,15,15,9,1,Stimuli/testStimuliSquare/6u_s_11_2D.png,Stimuli/testStimuliSquare/6u_d_11_2D.png,1,1,,,,,,,,,c,2D
,,,,,,,20,male,B,2020-05-24_15h04.19.714,Remembering_Displays,2020.1.2,MacIntel,60,9,0,0.614605,1,0,0.65618,0,16,16,11,1,Stimuli/testStimuliSquare/6u_s_12_2D.png,Stimuli/testStimuliSquare/6u_d_12_2D.png,1,1,,,,,,,,,c,2D
,,,,,,,20,male,B,2020-05-24_15h04.19.714,Remembering_Displays,2020.1.2,MacIntel,60,9,0,0.52864,9,1,0.572615,0,17,17,21,1,Stimuli/testStimuliSquare/6u_s_11_s_2D.png,Stimuli/testStimuliSquare/6u_d_11_s_2D.png,1,1,,,,,,,,,s,2D
,,,,,,,20,male,B,2020-05-24_15h04.19.714,Remembering_Displays,2020.1.2,MacIntel,60,9,1,0.51988,1,1,0.327335,0,18,18,20,1,Stimuli/testStimuliSquare/6u_s_11_s_2D.png,Stimuli/testStimuliSquare/6u_s_11_s_2D.png,0,9,,,,,,,,,s,2D
,,,,,,,20,male,B,2020-05-24_15h04.19.714,Remembering_Displays,2020.1.2,MacIntel,60,1,1,0.676785,9,1,0.584425,0,19,19,7,1,Stimuli/testStimuliSquare/6u_s_10_2D.png,Stimuli/testStimuliSquare/6u_d_10_2D.png,1,1,,,,,,,,,c,2D
,,,,,,,20,male,B,2020-05-24_15h04.19.714,Remembering_Displays,2020.1.2,MacIntel,60,9,1,0.53492,1,1,0.425435,0,20,20,4,1,Stimuli/testStimuliSquare/6u_s_9_2D.png,Stimuli/testStimuliSquare/6u_s_9_2D.png,0,9,,,,,,,,,c,2D
,,,,,,,20,male,B,2020-05-24_15h04.19.714,Remembering_Displays,2020.1.2,MacIntel,60,9,1,0.43736,9,1,0.58534,0,21,21,12,1,Stimuli/testStimuliSquare/6u_s_7_s_2D.png,Stimuli/testStimuliSquare/6u_s_7_s_2D.png,0,9,,,,,,,,,s,2D
,,,,,,,20,male,B,2020-05-24_15h04.19.714,Remembering_Displays,2020.1.2,MacIntel,60,9,1,0.46493,9,1,0.48537,0,22,22,16,1,Stimuli/testStimuliSquare/6u_s_9_s_2D.png,Stimuli/testStimuliSquare/6u_s_9_s_2D.png,0,9,,,,,,,,,s,2D
,,,,,,,20,male,B,2020-05-24_15h04.19.714,Remembering_Displays,2020.1.2,MacIntel,60,9,1,0.45907,9,0,0.65122,0,23,23,6,1,Stimuli/testStimuliSquare/6u_s_10_2D.png,Stimuli/testStimuliSquare/6u_s_10_2D.png,0,9,,,,,,,,,c,2D
,,,,,,,20,male,B,2020-05-24_15h04.19.714,Remembering_Displays,2020.1.2,MacIntel,60,,,,,,,,,,,,,,,,0,7,7,7,1,Stimuli/trialListSquares2.xlsx,Instructions/instr_18.png,Progress: 144 of 192 trials completed,,
,,,,,,,20,male,B,2020-05-24_15h04.19.714,Remembering_Displays,2020.1.2,MacIntel,60,1,1,0.622875,9,1,0.388435,0,0,0,9,1,Stimuli/testStimuliCube/6u_s_23.png,Stimuli/testStimuliCube/6u_d_23.png,1,1,,,,,,,,,c,3D
,,,,,,,20,male,B,2020-05-24_15h04.19.714,Remembering_Displays,2020.1.2,MacIntel,60,9,1,0.42655,1,1,0.489475,0,1,1,0,1,Stimuli/testStimuliCube/6u_s_19.png,Stimuli/testStimuliCube/6u_s_19.png,0,9,,,,,,,,,c,3D
,,,,,,,20,male,B,2020-05-24_15h04.19.714,Remembering_Displays,2020.1.2,MacIntel,60,1,1,0.574085,9,1,0.60915,0,2,2,13,1,Stimuli/testStimuliCube/6u_s_19_s.png,Stimuli/testStimuliCube/6u_d_19_s.png,1,1,,,,,,,,,s,3D
,,,,,,,20,male,B,2020-05-24_15h04.19.714,Remembering_Displays,2020.1.2,MacIntel,60,9,1,0.541715,1,1,0.487265,0,3,3,18,1,Stimuli/testStimuliCube/6u_s_22_s.png,Stimuli/testStimuliCube/6u_s_22_s.png,0,9,,,,,,,,,s,3D
,,,,,,,20,male,B,2020-05-24_15h04.19.714,Remembering_Displays,2020.1.2,MacIntel,60,1,1,0.4902,1,1,0.502485,0,4,4,3,1,Stimuli/testStimuliCube/6u_s_20.png,Stimuli/testStimuliCube/6u_d_20.png,1,1,,,,,,,,,c,3D
,,,,,,,20,male,B,2020-05-24_15h04.19.714,Remembering_Displays,2020.1.2,MacIntel,60,1,1,0.47674,1,1,0.57559,0,5,5,5,1,Stimuli/testStimuliCube/6u_s_21.png,Stimuli/testStimuliCube/6u_d_21.png,1,1,,,,,,,,,c,3D
,,,,,,,20,male,B,2020-05-24_15h04.19.714,Remembering_Displays,2020.1.2,MacIntel,60,1,0,0.616955,9,0,0.369955,0,6,6,4,1,Stimuli/testStimuliCube/6u_s_21.png,Stimuli/testStimuliCube/6u_s_21.png,0,9,,,,,,,,,c,3D
,,,,,,,20,male,B,2020-05-24_15h04.19.714,Remembering_Displays,2020.1.2,MacIntel,60,1,1,0.459935,1,1,0.55341,0,7,7,15,1,Stimuli/testStimuliCube/6u_s_20_s.png,Stimuli/testStimuliCube/6u_d_20_s.png,1,1,,,,,,,,,s,3D
,,,,,,,20,male,B,2020-05-24_15h04.19.714,Remembering_Displays,2020.1.2,MacIntel,60,9,1,0.556705,9,1,0.791075,0,8,8,12,1,Stimuli/testStimuliCube/6u_s_19_s.png,Stimuli/testStimuliCube/6u_s_19_s.png,0,9,,,,,,,,,s,3D
,,,,,,,20,male,B,2020-05-24_15h04.19.714,Remembering_Displays,2020.1.2,MacIntel,60,9,1,0.47024,1,1,0.6856,0,9,9,14,1,Stimuli/testStimuliCube/6u_s_20_s.png,Stimuli/testStimuliCube/6u_s_20_s.png,0,9,,,,,,,,,s,3D
,,,,,,,20,male,B,2020-05-24_15h04.19.714,Remembering_Displays,2020.1.2,MacIntel,60,1,1,0.48394,9,1,0.40175,0,10,10,19,1,Stimuli/testStimuliCube/6u_s_22_s.png,Stimuli/testStimuliCube/6u_d_22_s.png,1,1,,,,,,,,,s,3D
,,,,,,,20,male,B,2020-05-24_15h04.19.714,Remembering_Displays,2020.1.2,MacIntel,60,9,1,0.504035,9,1,0.59096,0,11,11,8,1,Stimuli/testStimuliCube/6u_s_23.png,Stimuli/testStimuliCube/6u_s_23.png,0,9,,,,,,,,,c,3D
,,,,,,,20,male,B,2020-05-24_15h04.19.714,Remembering_Displays,2020.1.2,MacIntel,60,9,1,0.50526,9,1,0.652135,0,12,12,16,1,Stimuli/testStimuliCube/6u_s_21_s.png,Stimuli/testStimuliCube/6u_s_21_s.png,0,9,,,,,,,,,s,3D
,,,,,,,20,male,B,2020-05-24_15h04.19.714,Remembering_Displays,2020.1.2,MacIntel,60,9,1,0.40277,1,1,0.574685,0,13,13,22,1,Stimuli/testStimuliCube/6u_s_24_s.png,Stimuli/testStimuliCube/6u_s_24_s.png,0,9,,,,,,,,,s,3D
,,,,,,,20,male,B,2020-05-24_15h04.19.714,Remembering_Displays,2020.1.2,MacIntel,60,1,1,0.6875,9,1,1.23561,0,14,14,11,1,Stimuli/testStimuliCube/6u_s_24.png,Stimuli/testStimuliCube/6u_d_24.png,1,1,,,,,,,,,c,3D
,,,,,,,20,male,B,2020-05-24_15h04.19.714,Remembering_Displays,2020.1.2,MacIntel,60,9,1,0.503535,1,1,0.6357,0,15,15,10,1,Stimuli/testStimuliCube/6u_s_24.png,Stimuli/testStimuliCube/6u_s_24.png,0,9,,,,,,,,,c,3D
,,,,,,,20,male,B,2020-05-24_15h04.19.714,Remembering_Displays,2020.1.2,MacIntel,60,1,1,0.53605,9,1,0.55389,0,16,16,1,1,Stimuli/testStimuliCube/6u_s_19.png,Stimuli/testStimuliCube/6u_d_19.png,1,1,,,,,,,,,c,3D
,,,,,,,20,male,B,2020-05-24_15h04.19.714,Remembering_Displays,2020.1.2,MacIntel,60,1,1,0.55508,1,1,1.152905,0,17,17,23,1,Stimuli/testStimuliCube/6u_s_24_s.png,Stimuli/testStimuliCube/6u_d_24_s.png,1,1,,,,,,,,,s,3D
,,,,,,,20,male,B,2020-05-24_15h04.19.714,Remembering_Displays,2020.1.2,MacIntel,60,9,1,0.4364,9,1,1.09355,0,18,18,20,1,Stimuli/testStimuliCube/6u_s_23_s.png,Stimuli/testStimuliCube/6u_s_23_s.png,0,9,,,,,,,,,s,3D
,,,,,,,20,male,B,2020-05-24_15h04.19.714,Remembering_Displays,2020.1.2,MacIntel,60,9,1,0.53778,9,1,0.80627,0,19,19,2,1,Stimuli/testStimuliCube/6u_s_20.png,Stimuli/testStimuliCube/6u_s_20.png,0,9,,,,,,,,,c,3D
,,,,,,,20,male,B,2020-05-24_15h04.19.714,Remembering_Displays,2020.1.2,MacIntel,60,1,1,0.53201,1,1,0.471455,0,20,20,17,1,Stimuli/testStimuliCube/6u_s_21_s.png,Stimuli/testStimuliCube/6u_d_21_s.png,1,1,,,,,,,,,s,3D
,,,,,,,20,male,B,2020-05-24_15h04.19.714,Remembering_Displays,2020.1.2,MacIntel,60,9,1,0.50168,1,1,0.4952,0,21,21,6,1,Stimuli/testStimuliCube/6u_s_22.png,Stimuli/testStimuliCube/6u_s_22.png,0,9,,,,,,,,,c,3D
,,,,,,,20,male,B,2020-05-24_15h04.19.714,Remembering_Displays,2020.1.2,MacIntel,60,1,1,0.50711,9,0,0.58442,0,22,22,7,1,Stimuli/testStimuliCube/6u_s_22.png,Stimuli/testStimuliCube/6u_d_22.png,1,1,,,,,,,,,c,3D
,,,,,,,20,male,B,2020-05-24_15h04.19.714,Remembering_Displays,2020.1.2,MacIntel,60,1,1,0.581705,9,0,0.42581,0,23,23,21,1,Stimuli/testStimuliCube/6u_s_23_s.png,Stimuli/testStimuliCube/6u_d_23_s.png,1,1,,,,,,,,,s,3D
,,,,,,,20,male,B,2020-05-24_15h04.19.714,Remembering_Displays,2020.1.2,MacIntel,60,,,,,,,,,,,,,,,,0,8,8,8,1,Stimuli/trialListCubes4.xlsx,Instructions/instr_19.png,Progress: 168 of 192 trials completed,,
,,,,,,,20,male,B,2020-05-24_15h04.19.714,Remembering_Displays,2020.1.2,MacIntel,60,1,1,0.54468,9,1,0.602925,0,0,0,7,1,Stimuli/testStimuliSquare/6u_s_4_2D.png,Stimuli/testStimuliSquare/6u_d_4_2D.png,1,1,,,,,,,,,c,2D
,,,,,,,20,male,B,2020-05-24_15h04.19.714,Remembering_Displays,2020.1.2,MacIntel,60,1,0,0.53919,1,1,0.434045,0,1,1,0,1,Stimuli/testStimuliSquare/6u_s_1_2D.png,Stimuli/testStimuliSquare/6u_s_1_2D.png,0,9,,,,,,,,,c,2D
,,,,,,,20,male,B,2020-05-24_15h04.19.714,Remembering_Displays,2020.1.2,MacIntel,60,1,1,0.76114,9,0,0.428495,0,2,2,15,1,Stimuli/testStimuliSquare/6u_s_2_s_2D.png,Stimuli/testStimuliSquare/6u_d_2_s_2D.png,1,1,,,,,,,,,s,2D
,,,,,,,20,male,B,2020-05-24_15h04.19.714,Remembering_Displays,2020.1.2,MacIntel,60,1,0,0.486485,1,1,0.706285,0,3,3,10,1,Stimuli/testStimuliSquare/6u_s_6_2D.png,Stimuli/testStimuliSquare/6u_s_6_2D.png,0,9,,,,,,,,,c,2D
,,,,,,,20,male,B,2020-05-24_15h04.19.714,Remembering_Displays,2020.1.2,MacIntel,60,9,0,0.54521,1,1,0.474215,0,4,4,23,1,Stimuli/testStimuliSquare/6u_s_6_s_2D.png,Stimuli/testStimuliSquare/6u_d_6_s_2D.png,1,1,,,,,,,,,s,2D
,,,,,,,20,male,B,2020-05-24_15h04.19.714,Remembering_Displays,2020.1.2,MacIntel,60,9,0,0.831785,1,1,0.534475,0,5,5,21,1,Stimuli/testStimuliSquare/6u_s_5_s_2D.png,Stimuli/testStimuliSquare/6u_d_5_s_2D.png,1,1,,,,,,,,,s,2D
,,,,,,,20,male,B,2020-05-24_15h04.19.714,Remembering_Displays,2020.1.2,MacIntel,60,9,1,0.63853,1,1,0.407805,0,6,6,18,1,Stimuli/testStimuliSquare/6u_s_4_s_2D.png,Stimuli/testStimuliSquare/6u_s_4_s_2D.png,0,9,,,,,,,,,s,2D
,,,,,,,20,male,B,2020-05-24_15h04.19.714,Remembering_Displays,2020.1.2,MacIntel,60,1,1,0.526925,1,0,0.71751,0,7,7,5,1,Stimuli/testStimuliSquare/6u_s_3_2D.png,Stimuli/testStimuliSquare/6u_d_3_2D.png,1,1,,,,,,,,,c,2D
,,,,,,,20,male,B,2020-05-24_15h04.19.714,Remembering_Displays,2020.1.2,MacIntel,60,1,0,0.536885,9,0,0.705495,0,8,8,12,1,Stimuli/testStimuliSquare/6u_s_1_s_2D.png,Stimuli/testStimuliSquare/6u_s_1_s_2D.png,0,9,,,,,,,,,s,2D
,,,,,,,20,male,B,2020-05-24_15h04.19.714,Remembering_Displays,2020.1.2,MacIntel,60,1,1,0.57572,1,1,0.881955,0,9,9,17,1,Stimuli/testStimuliSquare/6u_s_3_s_2D.png,Stimuli/testStimuliSquare/6u_d_3_s_2D.png,1,1,,,,,,,,,s,2D
,,,,,,,20,male,B,2020-05-24_15h04.19.714,Remembering_Displays,2020.1.2,MacIntel,60,1,1,0.477105,9,0,0.367475,0,10,10,1,1,Stimuli/testStimuliSquare/6u_s_1_2D.png,Stimuli/testStimuliSquare/6u_d_1_2D.png,1,1,,,,,,,,,c,2D
,,,,,,,20,male,B,2020-05-24_15h04.19.714,Remembering_Displays,2020.1.2,MacIntel,60,9,1,0.92767,1,0,0.590695,0,11,11,16,1,Stimuli/testStimuliSquare/6u_s_3_s_2D.png,Stimuli/testStimuliSquare/6u_s_3_s_2D.png,0,9,,,,,,,,,s,2D
,,,,,,,20,male,B,2020-05-24_15h04.19.714,Remembering_Displays,2020.1.2,MacIntel,60,1,1,0.541215,9,0,0.494765,0,12,12,3,1,Stimuli/testStimuliSquare/6u_s_2_2D.png,Stimuli/testStimuliSquare/6u_d_2_2D.png,1,1,,,,,,,,,c,2D
,,,,,,,20,male,B,2020-05-24_15h04.19.714,Remembering_Displays,2020.1.2,MacIntel,60,9,1,0.475175,9,1,0.67786,0,13,13,4,1,Stimuli/testStimuliSquare/6u_s_3_2D.png,Stimuli/testStimuliSquare/6u_s_3_2D.png,0,9,,,,,,,,,c,2D
,,,,,,,20,male,B,2020-05-24_15h04.19.714,Remembering_Displays,2020.1.2,MacIntel,60,9,1,0.420505,9,1,0.590245,0,14,14,6,1,Stimuli/testStimuliSquare/6u_s_4_2D.png,Stimuli/testStimuliSquare/6u_s_4_2D.png,0,9,,,,,,,,,c,2D
,,,,,,,20,male,B,2020-05-24_15h04.19.714,Remembering_Displays,2020.1.2,MacIntel,60,9,1,0.437475,9,1,0.85475,0,15,15,8,1,Stimuli/testStimuliSquare/6u_s_5_2D.png,Stimuli/testStimuliSquare/6u_s_5_2D.png,0,9,,,,,,,,,c,2D
,,,,,,,20,male,B,2020-05-24_15h04.19.714,Remembering_Displays,2020.1.2,MacIntel,60,9,0,0.576295,1,0,0.47865,0,16,16,9,1,Stimuli/testStimuliSquare/6u_s_5_2D.png,Stimuli/testStimuliSquare/6u_d_5_2D.png,1,1,,,,,,,,,c,2D
,,,,,,,20,male,B,2020-05-24_15h04.19.714,Remembering_Displays,2020.1.2,MacIntel,60,9,1,0.401815,1,1,0.369185,0,17,17,22,1,Stimuli/testStimuliSquare/6u_s_6_s_2D.png,Stimuli/testStimuliSquare/6u_s_6_s_2D.png,0,9,,,,,,,,,s,2D
,,,,,,,20,male,B,2020-05-24_15h04.19.714,Remembering_Displays,2020.1.2,MacIntel,60,9,1,0.48994,1,1,0.3938,0,18,18,2,1,Stimuli/testStimuliSquare/6u_s_2_2D.png,Stimuli/testStimuliSquare/6u_s_2_2D.png,0,9,,,,,,,,,c,2D
,,,,,,,20,male,B,2020-05-24_15h04.19.714,Remembering_Displays,2020.1.2,MacIntel,60,1,1,0.543195,1,1,0.33397,0,19,19,11,1,Stimuli/testStimuliSquare/6u_s_6_2D.png,Stimuli/testStimuliSquare/6u_d_6_2D.png,1,1,,,,,,,,,c,2D
,,,,,,,20,male,B,2020-05-24_15h04.19.714,Remembering_Displays,2020.1.2,MacIntel,60,1,1,0.475065,9,1,0.4341,0,20,20,13,1,Stimuli/testStimuliSquare/6u_s_1_s_2D.png,Stimuli/testStimuliSquare/6u_d_1_s_2D.png,1,1,,,,,,,,,s,2D
,,,,,,,20,male,B,2020-05-24_15h04.19.714,Remembering_Displays,2020.1.2,MacIntel,60,9,1,0.536295,1,1,0.508675,0,21,21,20,1,Stimuli/testStimuliSquare/6u_s_5_s_2D.png,Stimuli/testStimuliSquare/6u_s_5_s_2D.png,0,9,,,,,,,,,s,2D
,,,,,,,20,male,B,2020-05-24_15h04.19.714,Remembering_Displays,2020.1.2,MacIntel,60,1,1,0.490475,1,0,0.70401,0,22,22,19,1,Stimuli/testStimuliSquare/6u_s_4_s_2D.png,Stimuli/testStimuliSquare/6u_d_4_s_2D.png,1,1,,,,,,,,,s,2D
,,,,,,,20,male,B,2020-05-24_15h04.19.714,Remembering_Displays,2020.1.2,MacIntel,60,1,0,0.494085,9,1,0.31797,0,23,23,14,1,Stimuli/testStimuliSquare/6u_s_2_s_2D.png,Stimuli/testStimuliSquare/6u_s_2_s_2D.png,0,9,,,,,,,,,s,2D