instr_Loop.thisRepN,instr_Loop.thisTrialN,instr_Loop.thisN,instr_Loop.thisIndex,instr_Loop.ran,instructionImage,time,age,sex (female/male),order,date,expName,psychopyVersion,OS,frameRate,struc_judge_respond.keys,struc_judge_respond.corr,dual_respond.keys,dual_respond.corr,dual_respond.rt,trials.thisRepN,trials.thisTrialN,trials.thisN,trials.thisIndex,trials.ran,stim1,stim2,isAnyChange,corrAns,struc_judge_respond.rt,selectBlock.thisRepN,selectBlock.thisTrialN,selectBlock.thisN,selectBlock.thisIndex,selectBlock.ran,condsFile,condsImage,remaining,connected,dimensionality
0,0,0,0,1,Instructions/consent.png,3,20,female,B,2020-05-25_00h05.01.042,Remembering_Displays,2020.1.2,MacIntel,60,,,,,,,,,,,,,,,,,,,,,,,,,
0,1,1,1,1,Instructions/instr_1.png,5,20,female,B,2020-05-25_00h05.01.042,Remembering_Displays,2020.1.2,MacIntel,60,,,,,,,,,,,,,,,,,,,,,,,,,
0,2,2,2,1,Instructions/instr_2.png,3,20,female,B,2020-05-25_00h05.01.042,Remembering_Displays,2020.1.2,MacIntel,60,,,,,,,,,,,,,,,,,,,,,,,,,
0,3,3,3,1,Instructions/instr_3.png,5,20,female,B,2020-05-25_00h05.01.042,Remembering_Displays,2020.1.2,MacIntel,60,,,,,,,,,,,,,,,,,,,,,,,,,
0,4,4,4,1,Instructions/instr_4.png,1,20,female,B,2020-05-25_00h05.01.042,Remembering_Displays,2020.1.2,MacIntel,60,,,,,,,,,,,,,,,,,,,,,,,,,
0,5,5,5,1,Instructions/instr_5.png,1,20,female,B,2020-05-25_00h05.01.042,Remembering_Displays,2020.1.2,MacIntel,60,,,,,,,,,,,,,,,,,,,,,,,,,
0,6,6,6,1,Instructions/instr_6.png,1,20,female,B,2020-05-25_00h05.01.042,Remembering_Displays,2020.1.2,MacIntel,60,,,,,,,,,,,,,,,,,,,,,,,,,
0,7,7,7,1,Instructions/instr_7.png,1,20,female,B,2020-05-25_00h05.01.042,Remembering_Displays,2020.1.2,MacIntel,60,,,,,,,,,,,,,,,,,,,,,,,,,
0,8,8,8,1,Instructions/instr_8.png,3,20,female,B,2020-05-25_00h05.01.042,Remembering_Displays,2020.1.2,MacIntel,60,,,,,,,,,,,,,,,,,,,,,,,,,
0,9,9,9,1,Instructions/instr_9.png,3,20,female,B,2020-05-25_00h05.01.042,Remembering_Displays,2020.1.2,MacIntel,60,,,,,,,,,,,,,,,,,,,,,,,,,
0,10,10,10,1,Instructions/instr_10.png,3,20,female,B,2020-05-25_00h05.01.042,Remembering_Displays,2020.1.2,MacIntel,60,,,,,,,,,,,,,,,,,,,,,,,,,
0,11,11,11,1,Instructions/instr_11.png,3,20,female,B,2020-05-25_00h05.01.042,Remembering_Displays,2020.1.2,MacIntel,60,,,,,,,,,,,,,,,,,,,,,,,,,
0,12,12,12,1,Instructions/instr_12.png,3,20,female,B,2020-05-25_00h05.01.042,Remembering_Displays,2020.1.2,MacIntel,60,,,,,,,,,,,,,,,,,,,,,,,,,
0,13,13,13,1,Instructions/instr_13.png,3,20,female,B,2020-05-25_00h05.01.042,Remembering_Displays,2020.1.2,MacIntel,60,,,,,,,,,,,,,,,,,,,,,,,,,
0,14,14,14,1,Instructions/instr_14.png,3,20,female,B,2020-05-25_00h05.01.042,Remembering_Displays,2020.1.2,MacIntel,60,,,,,,,,,,,,,,,,,,,,,,,,,
0,15,15,15,1,Instructions/instr_15.png,3,20,female,B,2020-05-25_00h05.01.042,Remembering_Displays,2020.1.2,MacIntel,60,,,,,,,,,,,,,,,,,,,,,,,,,
0,16,16,16,1,Instructions/instr_16.png,5,20,female,B,2020-05-25_00h05.01.042,Remembering_Displays,2020.1.2,MacIntel,60,,,,,,,,,,,,,,,,,,,,,,,,,
,,,,,,,20,female,B,2020-05-25_00h05.01.042,Remembering_Displays,2020.1.2,MacIntel,60,,0,1,0,5.96773,0,0,0,7,1,Stimuli/practiceStimuliCube/practice4_s.png,Stimuli/practiceStimuliCube/practice4_s.png,0,9,,,,,,,,,,,
,,,,,,,20,female,B,2020-05-25_00h05.01.042,Remembering_Displays,2020.1.2,MacIntel,60,1,1,9,1,1.78625,0,1,1,4,1,Stimuli/practiceStimuliCube/practice1_s.png,Stimuli/practiceStimuliCube/practice1_d.png,1,1,0.799305,,,,,,,,,,
,,,,,,,20,female,B,2020-05-25_00h05.01.042,Remembering_Displays,2020.1.2,MacIntel,60,1,1,1,1,1.433865,0,2,2,1,1,Stimuli/practiceStimuliCube/practice2_s.png,Stimuli/practiceStimuliCube/practice2_d.png,1,1,1.01003,,,,,,,,,,
,,,,,,,20,female,B,2020-05-25_00h05.01.042,Remembering_Displays,2020.1.2,MacIntel,60,1,1,1,1,0.8699,0,3,3,6,1,Stimuli/practiceStimuliCube/practice3_s.png,Stimuli/practiceStimuliCube/practice3_d.png,1,1,1.08187,,,,,,,,,,
,,,,,,,20,female,B,2020-05-25_00h05.01.042,Remembering_Displays,2020.1.2,MacIntel,60,9,1,1,1,1.31948,0,4,4,0,1,Stimuli/practiceStimuliCube/practice1_s.png,Stimuli/practiceStimuliCube/practice1_s.png,0,9,1.068285,,,,,,,,,,
,,,,,,,20,female,B,2020-05-25_00h05.01.042,Remembering_Displays,2020.1.2,MacIntel,60,1,1,9,1,1.33006,0,5,5,3,1,Stimuli/practiceStimuliCube/practice4_s.png,Stimuli/practiceStimuliCube/practice4_d.png,1,1,1.315275,,,,,,,,,,
,,,,,,,20,female,B,2020-05-25_00h05.01.042,Remembering_Displays,2020.1.2,MacIntel,60,9,1,1,1,0.821255,0,6,6,5,1,Stimuli/practiceStimuliCube/practice2_s.png,Stimuli/practiceStimuliCube/practice2_s.png,0,9,1.068415,,,,,,,,,,
,,,,,,,20,female,B,2020-05-25_00h05.01.042,Remembering_Displays,2020.1.2,MacIntel,60,9,1,1,1,1.104295,0,7,7,2,1,Stimuli/practiceStimuliCube/practice3_s.png,Stimuli/practiceStimuliCube/practice3_s.png,0,9,1.039555,,,,,,,,,,
,,,,,,,20,female,B,2020-05-25_00h05.01.042,Remembering_Displays,2020.1.2,MacIntel,60,,,,,,,,,,,,,,,,0,0,0,0,1,Stimuli/practiceListCubes.xlsx,Instructions/instr_practice_B.png,Practice trials completed,,
,,,,,,,20,female,B,2020-05-25_00h05.01.042,Remembering_Displays,2020.1.2,MacIntel,60,,0,1,0,0.831195,0,0,0,0,1,Stimuli/testStimuliCube/6u_s_1.png,Stimuli/testStimuliCube/6u_s_1.png,0,9,,,,,,,,,,c,3D
,,,,,,,20,female,B,2020-05-25_00h05.01.042,Remembering_Displays,2020.1.2,MacIntel,60,1,1,9,0,1.171135,0,1,1,15,1,Stimuli/testStimuliCube/6u_s_2_s.png,Stimuli/testStimuliCube/6u_d_2_s.png,1,1,1.25188,,,,,,,,,s,3D
,,,,,,,20,female,B,2020-05-25_00h05.01.042,Remembering_Displays,2020.1.2,MacIntel,60,,0,1,0,0.96744,0,2,2,20,1,Stimuli/testStimuliCube/6u_s_5_s.png,Stimuli/testStimuliCube/6u_s_5_s.png,0,9,,,,,,,,,,s,3D
,,,,,,,20,female,B,2020-05-25_00h05.01.042,Remembering_Displays,2020.1.2,MacIntel,60,1,0,1,0,1.173095,0,3,3,14,1,Stimuli/testStimuliCube/6u_s_2_s.png,Stimuli/testStimuliCube/6u_s_2_s.png,0,9,0.935975,,,,,,,,,s,3D
,,,,,,,20,female,B,2020-05-25_00h05.01.042,Remembering_Displays,2020.1.2,MacIntel,60,1,1,1,1,0.92071,0,4,4,7,1,Stimuli/testStimuliCube/6u_s_4.png,Stimuli/testStimuliCube/6u_d_4.png,1,1,1.369285,,,,,,,,,c,3D
,,,,,,,20,female,B,2020-05-25_00h05.01.042,Remembering_Displays,2020.1.2,MacIntel,60,9,1,9,1,0.717745,0,5,5,18,1,Stimuli/testStimuliCube/6u_s_4_s.png,Stimuli/testStimuliCube/6u_s_4_s.png,0,9,0.81838,,,,,,,,,s,3D
,,,,,,,20,female,B,2020-05-25_00h05.01.042,Remembering_Displays,2020.1.2,MacIntel,60,1,1,1,0,0.95083,0,6,6,17,1,Stimuli/testStimuliCube/6u_s_3_s.png,Stimuli/testStimuliCube/6u_d_3_s.png,1,1,0.945445,,,,,,,,,s,3D
,,,,,,,20,female,B,2020-05-25_00h05.01.042,Remembering_Displays,2020.1.2,MacIntel,60,1,1,1,1,0.86849,0,7,7,23,1,Stimuli/testStimuliCube/6u_s_6_s.png,Stimuli/testStimuliCube/6u_d_6_s.png,1,1,1.051575,,,,,,,,,s,3D
,,,,,,,20,female,B,2020-05-25_00h05.01.042,Remembering_Displays,2020.1.2,MacIntel,60,1,1,1,1,0.70473,0,8,8,9,1,Stimuli/testStimuliCube/6u_s_5.png,Stimuli/testStimuliCube/6u_d_5.png,1,1,1.014795,,,,,,,,,c,3D
,,,,,,,20,female,B,2020-05-25_00h05.01.042,Remembering_Displays,2020.1.2,MacIntel,60,1,1,1,1,0.804795,0,9,9,13,1,Stimuli/testStimuliCube/6u_s_1_s.png,Stimuli/testStimuliCube/6u_d_1_s.png,1,1,0.800265,,,,,,,,,s,3D
,,,,,,,20,female,B,2020-05-25_00h05.01.042,Remembering_Displays,2020.1.2,MacIntel,60,9,1,1,1,0.652355,0,10,10,10,1,Stimuli/testStimuliCube/6u_s_6.png,Stimuli/testStimuliCube/6u_s_6.png,0,9,1.136705,,,,,,,,,c,3D
,,,,,,,20,female,B,2020-05-25_00h05.01.042,Remembering_Displays,2020.1.2,MacIntel,60,9,1,9,1,1.10029,0,11,11,2,1,Stimuli/testStimuliCube/6u_s_2.png,Stimuli/testStimuliCube/6u_s_2.png,0,9,1.12273,,,,,,,,,c,3D
,,,,,,,20,female,B,2020-05-25_00h05.01.042,Remembering_Displays,2020.1.2,MacIntel,60,9,1,1,1,0.920505,0,12,12,22,1,Stimuli/testStimuliCube/6u_s_6_s.png,Stimuli/testStimuliCube/6u_s_6_s.png,0,9,0.806835,,,,,,,,,s,3D
,,,,,,,20,female,B,2020-05-25_00h05.01.042,Remembering_Displays,2020.1.2,MacIntel,60,1,1,9,1,1.084005,0,13,13,21,1,Stimuli/testStimuliCube/6u_s_5_s.png,Stimuli/testStimuliCube/6u_d_5_s.png,1,1,0.998775,,,,,,,,,s,3D
,,,,,,,20,female,B,2020-05-25_00h05.01.042,Remembering_Displays,2020.1.2,MacIntel,60,1,1,9,1,1.01662,0,14,14,1,1,Stimuli/testStimuliCube/6u_s_1.png,Stimuli/testStimuliCube/6u_d_1.png,1,1,1.209145,,,,,,,,,c,3D
,,,,,,,20,female,B,2020-05-25_00h05.01.042,Remembering_Displays,2020.1.2,MacIntel,60,1,0,9,1,0.78362,0,15,15,4,1,Stimuli/testStimuliCube/6u_s_3.png,Stimuli/testStimuliCube/6u_s_3.png,0,9,1.23722,,,,,,,,,c,3D
,,,,,,,20,female,B,2020-05-25_00h05.01.042,Remembering_Displays,2020.1.2,MacIntel,60,9,0,9,1,0.788965,0,16,16,5,1,Stimuli/testStimuliCube/6u_s_3.png,Stimuli/testStimuliCube/6u_d_3.png,1,1,1.09537,,,,,,,,,c,3D
,,,,,,,20,female,B,2020-05-25_00h05.01.042,Remembering_Displays,2020.1.2,MacIntel,60,1,1,9,1,0.8182,0,17,17,11,1,Stimuli/testStimuliCube/6u_s_6.png,Stimuli/testStimuliCube/6u_d_6.png,1,1,1.331945,,,,,,,,,c,3D
,,,,,,,20,female,B,2020-05-25_00h05.01.042,Remembering_Displays,2020.1.2,MacIntel,60,1,0,9,1,1.25336,0,18,18,12,1,Stimuli/testStimuliCube/6u_s_1_s.png,Stimuli/testStimuliCube/6u_s_1_s.png,0,9,1.333365,,,,,,,,,s,3D
,,,,,,,20,female,B,2020-05-25_00h05.01.042,Remembering_Displays,2020.1.2,MacIntel,60,9,0,1,1,1.70635,0,19,19,19,1,Stimuli/testStimuliCube/6u_s_4_s.png,Stimuli/testStimuliCube/6u_d_4_s.png,1,1,0.76832,,,,,,,,,s,3D
,,,,,,,20,female,B,2020-05-25_00h05.01.042,Remembering_Displays,2020.1.2,MacIntel,60,1,1,1,1,1.16706,0,20,20,3,1,Stimuli/testStimuliCube/6u_s_2.png,Stimuli/testStimuliCube/6u_d_2.png,1,1,1.205185,,,,,,,,,c,3D
,,,,,,,20,female,B,2020-05-25_00h05.01.042,Remembering_Displays,2020.1.2,MacIntel,60,9,1,1,1,0.521825,0,21,21,6,1,Stimuli/testStimuliCube/6u_s_4.png,Stimuli/testStimuliCube/6u_s_4.png,0,9,0.86935,,,,,,,,,c,3D
,,,,,,,20,female,B,2020-05-25_00h05.01.042,Remembering_Displays,2020.1.2,MacIntel,60,9,1,9,1,0.45437,0,22,22,16,1,Stimuli/testStimuliCube/6u_s_3_s.png,Stimuli/testStimuliCube/6u_s_3_s.png,0,9,0.974815,,,,,,,,,s,3D
,,,,,,,20,female,B,2020-05-25_00h05.01.042,Remembering_Displays,2020.1.2,MacIntel,60,9,1,9,1,0.684015,0,23,23,8,1,Stimuli/testStimuliCube/6u_s_5.png,Stimuli/testStimuliCube/6u_s_5.png,0,9,0.924625,,,,,,,,,c,3D
,,,,,,,20,female,B,2020-05-25_00h05.01.042,Remembering_Displays,2020.1.2,MacIntel,60,,,,,,,,,,,,,,,,0,1,1,1,1,Stimuli/trialListCubes1.xlsx,Instructions/instr_19.png,Progress: 24 of 192 trials completed,,
,,,,,,,20,female,B,2020-05-25_00h05.01.042,Remembering_Displays,2020.1.2,MacIntel,60,9,1,1,1,0.766615,0,0,0,7,1,Stimuli/practiceStimuliSquare/practice4_s.png,Stimuli/practiceStimuliSquare/practice4_s.png,0,9,0.88751,,,,,,,,,,
,,,,,,,20,female,B,2020-05-25_00h05.01.042,Remembering_Displays,2020.1.2,MacIntel,60,9,1,9,1,0.58489,0,1,1,2,1,Stimuli/practiceStimuliSquare/practice3_s.png,Stimuli/practiceStimuliSquare/practice3_s.png,0,9,0.788385,,,,,,,,,,
,,,,,,,20,female,B,2020-05-25_00h05.01.042,Remembering_Displays,2020.1.2,MacIntel,60,1,1,9,0,0.602565,0,2,2,3,1,Stimuli/practiceStimuliSquare/practice4_s.png,Stimuli/practiceStimuliSquare/practice4_d.png,1,1,0.748875,,,,,,,,,,
,,,,,,,20,female,B,2020-05-25_00h05.01.042,Remembering_Displays,2020.1.2,MacIntel,60,9,1,1,1,0.93441,0,3,3,5,1,Stimuli/practiceStimuliSquare/practice2_s.png,Stimuli/practiceStimuliSquare/practice2_s.png,0,9,0.80448,,,,,,,,,,
,,,,,,,20,female,B,2020-05-25_00h05.01.042,Remembering_Displays,2020.1.2,MacIntel,60,9,1,1,1,0.567115,0,4,4,0,1,Stimuli/practiceStimuliSquare/practice1_s.png,Stimuli/practiceStimuliSquare/practice1_s.png,0,9,0.9203,,,,,,,,,,
,,,,,,,20,female,B,2020-05-25_00h05.01.042,Remembering_Displays,2020.1.2,MacIntel,60,1,1,1,1,0.890135,0,5,5,6,1,Stimuli/practiceStimuliSquare/practice3_s.png,Stimuli/practiceStimuliSquare/practice3_d.png,1,1,1.115615,,,,,,,,,,
,,,,,,,20,female,B,2020-05-25_00h05.01.042,Remembering_Displays,2020.1.2,MacIntel,60,1,1,9,1,0.582835,0,6,6,4,1,Stimuli/practiceStimuliSquare/practice1_s.png,Stimuli/practiceStimuliSquare/practice1_d.png,1,1,0.797655,,,,,,,,,,
,,,,,,,20,female,B,2020-05-25_00h05.01.042,Remembering_Displays,2020.1.2,MacIntel,60,1,1,1,1,1.02105,0,7,7,1,1,Stimuli/practiceStimuliSquare/practice2_s.png,Stimuli/practiceStimuliSquare/practice2_d.png,1,1,0.807565,,,,,,,,,,
,,,,,,,20,female,B,2020-05-25_00h05.01.042,Remembering_Displays,2020.1.2,MacIntel,60,,,,,,,,,,,,,,,,0,2,2,2,1,Stimuli/practiceListSquares.xlsx,Instructions/instr_practice_A.png,Practice trials completed,,
,,,,,,,20,female,B,2020-05-25_00h05.01.042,Remembering_Displays,2020.1.2,MacIntel,60,9,1,1,1,0.46547,0,0,0,22,1,Stimuli/testStimuliSquare/6u_s_24_s_2D.png,Stimuli/testStimuliSquare/6u_s_24_s_2D.png,0,9,1.104875,,,,,,,,,s,2D
,,,,,,,20,female,B,2020-05-25_00h05.01.042,Remembering_Displays,2020.1.2,MacIntel,60,1,0,1,1,1.018625,0,1,1,2,1,Stimuli/testStimuliSquare/6u_s_20_2D.png,Stimuli/testStimuliSquare/6u_s_20_2D.png,0,9,1.08699,,,,,,,,,c,2D
,,,,,,,20,female,B,2020-05-25_00h05.01.042,Remembering_Displays,2020.1.2,MacIntel,60,9,1,9,1,0.56699,0,2,2,18,1,Stimuli/testStimuliSquare/6u_s_22_s_2D.png,Stimuli/testStimuliSquare/6u_s_22_s_2D.png,0,9,0.65031,,,,,,,,,s,2D
,,,,,,,20,female,B,2020-05-25_00h05.01.042,Remembering_Displays,2020.1.2,MacIntel,60,9,1,1,1,0.500035,0,3,3,0,1,Stimuli/testStimuliSquare/6u_s_19_2D.png,Stimuli/testStimuliSquare/6u_s_19_2D.png,0,9,0.826715,,,,,,,,,c,2D
,,,,,,,20,female,B,2020-05-25_00h05.01.042,Remembering_Displays,2020.1.2,MacIntel,60,1,1,1,1,0.95482,0,4,4,19,1,Stimuli/testStimuliSquare/6u_s_22_s_2D.png,Stimuli/testStimuliSquare/6u_d_22_s_2D.png,1,1,0.96216,,,,,,,,,s,2D
,,,,,,,20,female,B,2020-05-25_00h05.01.042,Remembering_Displays,2020.1.2,MacIntel,60,9,1,9,1,0.668665,0,5,5,20,1,Stimuli/testStimuliSquare/6u_s_23_s_2D.png,Stimuli/testStimuliSquare/6u_s_23_s_2D.png,0,9,0.787445,,,,,,,,,s,2D
,,,,,,,20,female,B,2020-05-25_00h05.01.042,Remembering_Displays,2020.1.2,MacIntel,60,1,1,9,1,1.16914,0,6,6,5,1,Stimuli/testStimuliSquare/6u_s_21_2D.png,Stimuli/testStimuliSquare/6u_d_21_2D.png,1,1,0.76966,,,,,,,,,c,2D
,,,,,,,20,female,B,2020-05-25_00h05.01.042,Remembering_Displays,2020.1.2,MacIntel,60,1,1,1,0,0.535355,0,7,7,11,1,Stimuli/testStimuliSquare/6u_s_24_2D.png,Stimuli/testStimuliSquare/6u_d_24_2D.png,1,1,0.824265,,,,,,,,,c,2D
,,,,,,,20,female,B,2020-05-25_00h05.01.042,Remembering_Displays,2020.1.2,MacIntel,60,1,1,1,1,0.90695,0,8,8,17,1,Stimuli/testStimuliSquare/6u_s_21_s_2D.png,Stimuli/testStimuliSquare/6u_d_21_s_2D.png,1,1,0.930295,,,,,,,,,s,2D
,,,,,,,20,female,B,2020-05-25_00h05.01.042,Remembering_Displays,2020.1.2,MacIntel,60,9,1,1,1,1.27127,0,9,9,16,1,Stimuli/testStimuliSquare/6u_s_21_s_2D.png,Stimuli/testStimuliSquare/6u_s_21_s_2D.png,0,9,0.81961,,,,,,,,,s,2D
,,,,,,,20,female,B,2020-05-25_00h05.01.042,Remembering_Displays,2020.1.2,MacIntel,60,1,1,1,1,0.896245,0,10,10,15,1,Stimuli/testStimuliSquare/6u_s_20_s_2D.png,Stimuli/testStimuliSquare/6u_d_20_s_2D.png,1,1,1.07828,,,,,,,,,s,2D
,,,,,,,20,female,B,2020-05-25_00h05.01.042,Remembering_Displays,2020.1.2,MacIntel,60,1,0,1,1,0.800785,0,11,11,10,1,Stimuli/testStimuliSquare/6u_s_24_2D.png,Stimuli/testStimuliSquare/6u_s_24_2D.png,0,9,0.84078,,,,,,,,,c,2D
,,,,,,,20,female,B,2020-05-25_00h05.01.042,Remembering_Displays,2020.1.2,MacIntel,60,9,1,1,1,0.501035,0,12,12,6,1,Stimuli/testStimuliSquare/6u_s_22_2D.png,Stimuli/testStimuliSquare/6u_s_22_2D.png,0,9,0.924045,,,,,,,,,c,2D
,,,,,,,20,female,B,2020-05-25_00h05.01.042,Remembering_Displays,2020.1.2,MacIntel,60,1,1,9,1,0.7214,0,13,13,3,1,Stimuli/testStimuliSquare/6u_s_20_2D.png,Stimuli/testStimuliSquare/6u_d_20_2D.png,1,1,0.65544,,,,,,,,,c,2D
,,,,,,,20,female,B,2020-05-25_00h05.01.042,Remembering_Displays,2020.1.2,MacIntel,60,1,1,1,1,1.00091,0,14,14,13,1,Stimuli/testStimuliSquare/6u_s_19_s_2D.png,Stimuli/testStimuliSquare/6u_d_19_s_2D.png,1,1,0.75873,,,,,,,,,s,2D
,,,,,,,20,female,B,2020-05-25_00h05.01.042,Remembering_Displays,2020.1.2,MacIntel,60,9,1,9,1,0.40103,0,15,15,4,1,Stimuli/testStimuliSquare/6u_s_21_2D.png,Stimuli/testStimuliSquare/6u_s_21_2D.png,0,9,0.857645,,,,,,,,,c,2D
,,,,,,,20,female,B,2020-05-25_00h05.01.042,Remembering_Displays,2020.1.2,MacIntel,60,9,1,9,1,0.43543,0,16,16,12,1,Stimuli/testStimuliSquare/6u_s_19_s_2D.png,Stimuli/testStimuliSquare/6u_s_19_s_2D.png,0,9,0.739065,,,,,,,,,s,2D
,,,,,,,20,female,B,2020-05-25_00h05.01.042,Remembering_Displays,2020.1.2,MacIntel,60,1,1,9,1,0.717485,0,17,17,7,1,Stimuli/testStimuliSquare/6u_s_22_2D.png,Stimuli/testStimuliSquare/6u_d_22_2D.png,1,1,0.588055,,,,,,,,,c,2D
,,,,,,,20,female,B,2020-05-25_00h05.01.042,Remembering_Displays,2020.1.2,MacIntel,60,9,1,1,1,0.56801,0,18,18,8,1,Stimuli/testStimuliSquare/6u_s_23_2D.png,Stimuli/testStimuliSquare/6u_s_23_2D.png,0,9,0.87555,,,,,,,,,c,2D
,,,,,,,20,female,B,2020-05-25_00h05.01.042,Remembering_Displays,2020.1.2,MacIntel,60,1,1,1,1,0.83401,0,19,19,23,1,Stimuli/testStimuliSquare/6u_s_24_s_2D.png,Stimuli/testStimuliSquare/6u_d_24_s_2D.png,1,1,0.99329,,,,,,,,,s,2D
,,,,,,,20,female,B,2020-05-25_00h05.01.042,Remembering_Displays,2020.1.2,MacIntel,60,1,1,9,1,0.65128,0,20,20,9,1,Stimuli/testStimuliSquare/6u_s_23_2D.png,Stimuli/testStimuliSquare/6u_d_23_2D.png,1,1,0.856075,,,,,,,,,c,2D
,,,,,,,20,female,B,2020-05-25_00h05.01.042,Remembering_Displays,2020.1.2,MacIntel,60,1,1,1,1,0.95086,0,21,21,1,1,Stimuli/testStimuliSquare/6u_s_19_2D.png,Stimuli/testStimuliSquare/6u_d_19_2D.png,1,1,0.639755,,,,,,,,,c,2D
,,,,,,,20,female,B,2020-05-25_00h05.01.042,Remembering_Displays,2020.1.2,MacIntel,60,1,1,1,1,0.841285,0,22,22,21,1,Stimuli/testStimuliSquare/6u_s_23_s_2D.png,Stimuli/testStimuliSquare/6u_d_23_s_2D.png,1,1,1.131265,,,,,,,,,s,2D
,,,,,,,20,female,B,2020-05-25_00h05.01.042,Remembering_Displays,2020.1.2,MacIntel,60,9,1,9,1,0.54093,0,23,23,14,1,Stimuli/testStimuliSquare/6u_s_20_s_2D.png,Stimuli/testStimuliSquare/6u_s_20_s_2D.png,0,9,0.76907,,,,,,,,,s,2D
,,,,,,,20,female,B,2020-05-25_00h05.01.042,Remembering_Displays,2020.1.2,MacIntel,60,,,,,,,,,,,,,,,,0,3,3,3,1,Stimuli/trialListSquares4.xlsx,Instructions/instr_18.png,Progress: 48 of 192 trials completed,,
,,,,,,,20,female,B,2020-05-25_00h05.01.042,Remembering_Displays,2020.1.2,MacIntel,60,1,1,9,1,0.61738,0,0,0,1,1,Stimuli/testStimuliCube/6u_s_7.png,Stimuli/testStimuliCube/6u_d_7.png,1,1,1.167475,,,,,,,,,c,3D
,,,,,,,20,female,B,2020-05-25_00h05.01.042,Remembering_Displays,2020.1.2,MacIntel,60,1,1,9,1,0.603595,0,1,1,15,1,Stimuli/testStimuliCube/6u_s_8_s.png,Stimuli/testStimuliCube/6u_d_8_s.png,1,1,1.04463,,,,,,,,,s,3D
,,,,,,,20,female,B,2020-05-25_00h05.01.042,Remembering_Displays,2020.1.2,MacIntel,60,9,1,9,1,0.473405,0,2,2,18,1,Stimuli/testStimuliCube/6u_s_10_s.png,Stimuli/testStimuliCube/6u_s_10_s.png,0,9,0.837575,,,,,,,,,s,3D
,,,,,,,20,female,B,2020-05-25_00h05.01.042,Remembering_Displays,2020.1.2,MacIntel,60,1,1,1,1,1.217615,0,3,3,7,1,Stimuli/testStimuliCube/6u_s_10.png,Stimuli/testStimuliCube/6u_d_10.png,1,1,0.90586,,,,,,,,,c,3D
,,,,,,,20,female,B,2020-05-25_00h05.01.042,Remembering_Displays,2020.1.2,MacIntel,60,9,1,1,1,0.671755,0,4,4,14,1,Stimuli/testStimuliCube/6u_s_8_s.png,Stimuli/testStimuliCube/6u_s_8_s.png,0,9,0.687555,,,,,,,,,s,3D
,,,,,,,20,female,B,2020-05-25_00h05.01.042,Remembering_Displays,2020.1.2,MacIntel,60,9,1,9,1,0.432705,0,5,5,16,1,Stimuli/testStimuliCube/6u_s_9_s.png,Stimuli/testStimuliCube/6u_s_9_s.png,0,9,0.74082,,,,,,,,,s,3D
,,,,,,,20,female,B,2020-05-25_00h05.01.042,Remembering_Displays,2020.1.2,MacIntel,60,9,1,9,1,0.38318,0,6,6,2,1,Stimuli/testStimuliCube/6u_s_8.png,Stimuli/testStimuliCube/6u_s_8.png,0,9,0.709225,,,,,,,,,c,3D
,,,,,,,20,female,B,2020-05-25_00h05.01.042,Remembering_Displays,2020.1.2,MacIntel,60,9,1,9,1,0.70015,0,7,7,6,1,Stimuli/testStimuliCube/6u_s_10.png,Stimuli/testStimuliCube/6u_s_10.png,0,9,0.56859,,,,,,,,,c,3D
,,,,,,,20,female,B,2020-05-25_00h05.01.042,Remembering_Displays,2020.1.2,MacIntel,60,9,0,9,1,0.639755,0,8,8,21,1,Stimuli/testStimuliCube/6u_s_11_s.png,Stimuli/testStimuliCube/6u_d_11_s.png,1,1,0.857105,,,,,,,,,s,3D
,,,,,,,20,female,B,2020-05-25_00h05.01.042,Remembering_Displays,2020.1.2,MacIntel,60,1,1,1,1,0.936395,0,9,9,3,1,Stimuli/testStimuliCube/6u_s_8.png,Stimuli/testStimuliCube/6u_d_8.png,1,1,0.979515,,,,,,,,,c,3D
,,,,,,,20,female,B,2020-05-25_00h05.01.042,Remembering_Displays,2020.1.2,MacIntel,60,9,1,1,1,0.60208,0,10,10,0,1,Stimuli/testStimuliCube/6u_s_7.png,Stimuli/testStimuliCube/6u_s_7.png,0,9,0.72066,,,,,,,,,c,3D
,,,,,,,20,female,B,2020-05-25_00h05.01.042,Remembering_Displays,2020.1.2,MacIntel,60,1,1,9,1,0.90495,0,11,11,5,1,Stimuli/testStimuliCube/6u_s_9.png,Stimuli/testStimuliCube/6u_d_9.png,1,1,0.892255,,,,,,,,,c,3D
,,,,,,,20,female,B,2020-05-25_00h05.01.042,Remembering_Displays,2020.1.2,MacIntel,60,1,0,1,1,0.702175,0,12,12,22,1,Stimuli/testStimuliCube/6u_s_12_s.png,Stimuli/testStimuliCube/6u_s_12_s.png,0,9,0.92276,,,,,,,,,s,3D
,,,,,,,20,female,B,2020-05-25_00h05.01.042,Remembering_Displays,2020.1.2,MacIntel,60,9,1,9,1,0.67208,0,13,13,10,1,Stimuli/testStimuliCube/6u_s_12.png,Stimuli/testStimuliCube/6u_s_12.png,0,9,0.60279,,,,,,,,,c,3D
,,,,,,,20,female,B,2020-05-25_00h05.01.042,Remembering_Displays,2020.1.2,MacIntel,60,1,1,9,1,0.7211,0,14,14,23,1,Stimuli/testStimuliCube/6u_s_12_s.png,Stimuli/testStimuliCube/6u_d_12_s.png,1,1,0.79076,,,,,,,,,s,3D
,,,,,,,20,female,B,2020-05-25_00h05.01.042,Remembering_Displays,2020.1.2,MacIntel,60,9,0,1,0,2.904675,0,15,15,17,1,Stimuli/testStimuliCube/6u_s_9_s.png,Stimuli/testStimuliCube/6u_d_9_s.png,1,1,1.39902,,,,,,,,,s,3D
,,,,,,,20,female,B,2020-05-25_00h05.01.042,Remembering_Displays,2020.1.2,MacIntel,60,1,1,9,1,0.823715,0,16,16,9,1,Stimuli/testStimuliCube/6u_s_11.png,Stimuli/testStimuliCube/6u_d_11.png,1,1,0.82767,,,,,,,,,c,3D
,,,,,,,20,female,B,2020-05-25_00h05.01.042,Remembering_Displays,2020.1.2,MacIntel,60,9,1,9,1,0.47485,0,17,17,4,1,Stimuli/testStimuliCube/6u_s_9.png,Stimuli/testStimuliCube/6u_s_9.png,0,9,0.62337,,,,,,,,,c,3D
,,,,,,,20,female,B,2020-05-25_00h05.01.042,Remembering_Displays,2020.1.2,MacIntel,60,1,1,9,1,0.784225,0,18,18,19,1,Stimuli/testStimuliCube/6u_s_10_s.png,Stimuli/testStimuliCube/6u_d_10_s.png,1,1,0.7596,,,,,,,,,s,3D
,,,,,,,20,female,B,2020-05-25_00h05.01.042,Remembering_Displays,2020.1.2,MacIntel,60,9,1,9,1,0.850325,0,19,19,12,1,Stimuli/testStimuliCube/6u_s_7_s.png,Stimuli/testStimuliCube/6u_s_7_s.png,0,9,0.719035,,,,,,,,,s,3D
,,,,,,,20,female,B,2020-05-25_00h05.01.042,Remembering_Displays,2020.1.2,MacIntel,60,1,1,1,1,0.90112,0,20,20,13,1,Stimuli/testStimuliCube/6u_s_7_s.png,Stimuli/testStimuliCube/6u_d_7_s.png,1,1,0.648185,,,,,,,,,s,3D
,,,,,,,20,female,B,2020-05-25_00h05.01.042,Remembering_Displays,2020.1.2,MacIntel,60,1,1,1,1,0.519055,0,21,21,11,1,Stimuli/testStimuliCube/6u_s_12.png,Stimuli/testStimuliCube/6u_d_12.png,1,1,0.71022,,,,,,,,,c,3D
,,,,,,,20,female,B,2020-05-25_00h05.01.042,Remembering_Displays,2020.1.2,MacIntel,60,9,1,9,1,0.45423,0,22,22,8,1,Stimuli/testStimuliCube/6u_s_11.png,Stimuli/testStimuliCube/6u_s_11.png,0,9,0.971835,,,,,,,,,c,3D
,,,,,,,20,female,B,2020-05-25_00h05.01.042,Remembering_Displays,2020.1.2,MacIntel,60,9,1,9,1,0.469165,0,23,23,20,1,Stimuli/testStimuliCube/6u_s_11_s.png,Stimuli/testStimuliCube/6u_s_11_s.png,0,9,0.82443,,,,,,,,,s,3D
,,,,,,,20,female,B,2020-05-25_00h05.01.042,Remembering_Displays,2020.1.2,MacIntel,60,,,,,,,,,,,,,,,,0,4,4,4,1,Stimuli/trialListCubes2.xlsx,Instructions/instr_19.png,Progress: 72 of 192 trials completed,,
,,,,,,,20,female,B,2020-05-25_00h05.01.042,Remembering_Displays,2020.1.2,MacIntel,60,1,1,1,1,0.60563,0,0,0,3,1,Stimuli/testStimuliSquare/6u_s_14_2D.png,Stimuli/testStimuliSquare/6u_d_14_2D.png,1,1,0.633395,,,,,,,,,c,2D
,,,,,,,20,female,B,2020-05-25_00h05.01.042,Remembering_Displays,2020.1.2,MacIntel,60,9,1,9,1,0.43323,0,1,1,20,1,Stimuli/testStimuliSquare/6u_s_17_s_2D.png,Stimuli/testStimuliSquare/6u_s_17_s_2D.png,0,9,0.58434,,,,,,,,,s,2D
,,,,,,,20,female,B,2020-05-25_00h05.01.042,Remembering_Displays,2020.1.2,MacIntel,60,1,1,9,0,0.501105,0,2,2,15,1,Stimuli/testStimuliSquare/6u_s_14_s_2D.png,Stimuli/testStimuliSquare/6u_d_14_s_2D.png,1,1,0.58263,,,,,,,,,s,2D
,,,,,,,20,female,B,2020-05-25_00h05.01.042,Remembering_Displays,2020.1.2,MacIntel,60,9,1,1,1,5.03454,0,3,3,14,1,Stimuli/testStimuliSquare/6u_s_14_s_2D.png,Stimuli/testStimuliSquare/6u_s_14_s_2D.png,0,9,0.70036,,,,,,,,,s,2D
,,,,,,,20,female,B,2020-05-25_00h05.01.042,Remembering_Displays,2020.1.2,MacIntel,60,9,1,1,1,0.64996,0,4,4,0,1,Stimuli/testStimuliSquare/6u_s_13_2D.png,Stimuli/testStimuliSquare/6u_s_13_2D.png,0,9,0.6494,,,,,,,,,c,2D
,,,,,,,20,female,B,2020-05-25_00h05.01.042,Remembering_Displays,2020.1.2,MacIntel,60,9,1,1,1,0.500995,0,5,5,22,1,Stimuli/testStimuliSquare/6u_s_18_s_2D.png,Stimuli/testStimuliSquare/6u_s_18_s_2D.png,0,9,0.72037,,,,,,,,,s,2D
,,,,,,,20,female,B,2020-05-25_00h05.01.042,Remembering_Displays,2020.1.2,MacIntel,60,9,1,1,1,1.101085,0,6,6,10,1,Stimuli/testStimuliSquare/6u_s_18_2D.png,Stimuli/testStimuliSquare/6u_s_18_2D.png,0,9,0.699885,,,,,,,,,c,2D
,,,,,,,20,female,B,2020-05-25_00h05.01.042,Remembering_Displays,2020.1.2,MacIntel,60,9,1,9,1,1.368175,0,7,7,12,1,Stimuli/testStimuliSquare/6u_s_13_s_2D.png,Stimuli/testStimuliSquare/6u_s_13_s_2D.png,0,9,0.655365,,,,,,,,,s,2D
,,,,,,,20,female,B,2020-05-25_00h05.01.042,Remembering_Displays,2020.1.2,MacIntel,60,1,1,9,1,0.868485,0,8,8,19,1,Stimuli/testStimuliSquare/6u_s_16_s_2D.png,Stimuli/testStimuliSquare/6u_d_16_s_2D.png,1,1,0.598015,,,,,,,,,s,2D
,,,,,,,20,female,B,2020-05-25_00h05.01.042,Remembering_Displays,2020.1.2,MacIntel,60,1,1,1,1,0.500635,0,9,9,1,1,Stimuli/testStimuliSquare/6u_s_13_2D.png,Stimuli/testStimuliSquare/6u_d_13_2D.png,1,1,0.708735,,,,,,,,,c,2D
,,,,,,,20,female,B,2020-05-25_00h05.01.042,Remembering_Displays,2020.1.2,MacIntel,60,1,1,9,1,1.203775,0,10,10,11,1,Stimuli/testStimuliSquare/6u_s_18_2D.png,Stimuli/testStimuliSquare/6u_d_18_2D.png,1,1,0.76208,,,,,,,,,c,2D
,,,,,,,20,female,B,2020-05-25_00h05.01.042,Remembering_Displays,2020.1.2,MacIntel,60,1,1,9,1,0.66455,0,11,11,23,1,Stimuli/testStimuliSquare/6u_s_18_s_2D.png,Stimuli/testStimuliSquare/6u_d_18_s_2D.png,1,1,0.61143,,,,,,,,,s,2D
,,,,,,,20,female,B,2020-05-25_00h05.01.042,Remembering_Displays,2020.1.2,MacIntel,60,1,1,9,0,0.58747,0,12,12,17,1,Stimuli/testStimuliSquare/6u_s_15_s_2D.png,Stimuli/testStimuliSquare/6u_d_15_s_2D.png,1,1,0.531565,,,,,,,,,s,2D
,,,,,,,20,female,B,2020-05-25_00h05.01.042,Remembering_Displays,2020.1.2,MacIntel,60,1,1,9,1,0.64991,0,13,13,21,1,Stimuli/testStimuliSquare/6u_s_17_s_2D.png,Stimuli/testStimuliSquare/6u_d_17_s_2D.png,1,1,0.714165,,,,,,,,,s,2D
,,,,,,,20,female,B,2020-05-25_00h05.01.042,Remembering_Displays,2020.1.2,MacIntel,60,9,1,9,0,0.550485,0,14,14,16,1,Stimuli/testStimuliSquare/6u_s_15_s_2D.png,Stimuli/testStimuliSquare/6u_s_15_s_2D.png,0,9,0.587465,,,,,,,,,s,2D
,,,,,,,20,female,B,2020-05-25_00h05.01.042,Remembering_Displays,2020.1.2,MacIntel,60,9,1,1,1,0.786395,0,15,15,2,1,Stimuli/testStimuliSquare/6u_s_14_2D.png,Stimuli/testStimuliSquare/6u_s_14_2D.png,0,9,0.80548,,,,,,,,,c,2D
,,,,,,,20,female,B,2020-05-25_00h05.01.042,Remembering_Displays,2020.1.2,MacIntel,60,9,1,9,1,0.939715,0,16,16,4,1,Stimuli/testStimuliSquare/6u_s_15_2D.png,Stimuli/testStimuliSquare/6u_s_15_2D.png,0,9,0.60552,,,,,,,,,c,2D
,,,,,,,20,female,B,2020-05-25_00h05.01.042,Remembering_Displays,2020.1.2,MacIntel,60,1,1,1,1,0.669335,0,17,17,7,1,Stimuli/testStimuliSquare/6u_s_16_2D.png,Stimuli/testStimuliSquare/6u_d_16_2D.png,1,1,0.63121,,,,,,,,,c,2D
,,,,,,,20,female,B,2020-05-25_00h05.01.042,Remembering_Displays,2020.1.2,MacIntel,60,1,1,1,1,0.784185,0,18,18,13,1,Stimuli/testStimuliSquare/6u_s_13_s_2D.png,Stimuli/testStimuliSquare/6u_d_13_s_2D.png,1,1,0.56106,,,,,,,,,s,2D
,,,,,,,20,female,B,2020-05-25_00h05.01.042,Remembering_Displays,2020.1.2,MacIntel,60,1,1,1,1,0.6827,0,19,19,9,1,Stimuli/testStimuliSquare/6u_s_17_2D.png,Stimuli/testStimuliSquare/6u_d_17_2D.png,1,1,0.66889,,,,,,,,,c,2D
,,,,,,,20,female,B,2020-05-25_00h05.01.042,Remembering_Displays,2020.1.2,MacIntel,60,9,1,1,1,0.40404,0,20,20,18,1,Stimuli/testStimuliSquare/6u_s_16_s_2D.png,Stimuli/testStimuliSquare/6u_s_16_s_2D.png,0,9,0.704945,,,,,,,,,s,2D
,,,,,,,20,female,B,2020-05-25_00h05.01.042,Remembering_Displays,2020.1.2,MacIntel,60,1,1,9,1,1.14967,0,21,21,5,1,Stimuli/testStimuliSquare/6u_s_15_2D.png,Stimuli/testStimuliSquare/6u_d_15_2D.png,1,1,0.49847,,,,,,,,,c,2D
,,,,,,,20,female,B,2020-05-25_00h05.01.042,Remembering_Displays,2020.1.2,MacIntel,60,9,1,1,1,0.51793,0,22,22,8,1,Stimuli/testStimuliSquare/6u_s_17_2D.png,Stimuli/testStimuliSquare/6u_s_17_2D.png,0,9,0.685175,,,,,,,,,c,2D
,,,,,,,20,female,B,2020-05-25_00h05.01.042,Remembering_Displays,2020.1.2,MacIntel,60,9,1,1,1,0.46879,0,23,23,6,1,Stimuli/testStimuliSquare/6u_s_16_2D.png,Stimuli/testStimuliSquare/6u_s_16_2D.png,0,9,0.52171,,,,,,,,,c,2D
,,,,,,,20,female,B,2020-05-25_00h05.01.042,Remembering_Displays,2020.1.2,MacIntel,60,,,,,,,,,,,,,,,,0,5,5,5,1,Stimuli/trialListSquares3.xlsx,Instructions/instr_18.png,Progress: 96 of 192 trials completed,,
,,,,,,,20,female,B,2020-05-25_00h05.01.042,Remembering_Displays,2020.1.2,MacIntel,60,1,1,9,1,0.53579,0,0,0,1,1,Stimuli/testStimuliCube/6u_s_13.png,Stimuli/testStimuliCube/6u_d_13.png,1,1,0.59593,,,,,,,,,c,3D
,,,,,,,20,female,B,2020-05-25_00h05.01.042,Remembering_Displays,2020.1.2,MacIntel,60,1,1,1,1,0.53899,0,1,1,15,1,Stimuli/testStimuliCube/6u_s_14_s.png,Stimuli/testStimuliCube/6u_d_14_s.png,1,1,0.648755,,,,,,,,,s,3D
,,,,,,,20,female,B,2020-05-25_00h05.01.042,Remembering_Displays,2020.1.2,MacIntel,60,9,1,9,1,0.43528,0,2,2,0,1,Stimuli/testStimuliCube/6u_s_13.png,Stimuli/testStimuliCube/6u_s_13.png,0,9,0.615785,,,,,,,,,c,3D
,,,,,,,20,female,B,2020-05-25_00h05.01.042,Remembering_Displays,2020.1.2,MacIntel,60,1,1,1,1,0.431955,0,3,3,13,1,Stimuli/testStimuliCube/6u_s_13_s.png,Stimuli/testStimuliCube/6u_d_13_s.png,1,1,0.580655,,,,,,,,,s,3D
,,,,,,,20,female,B,2020-05-25_00h05.01.042,Remembering_Displays,2020.1.2,MacIntel,60,9,1,9,1,0.588515,0,4,4,10,1,Stimuli/testStimuliCube/6u_s_18.png,Stimuli/testStimuliCube/6u_s_18.png,0,9,0.718525,,,,,,,,,c,3D
,,,,,,,20,female,B,2020-05-25_00h05.01.042,Remembering_Displays,2020.1.2,MacIntel,60,1,1,1,1,1.065715,0,5,5,11,1,Stimuli/testStimuliCube/6u_s_18.png,Stimuli/testStimuliCube/6u_d_18.png,1,1,0.60968,,,,,,,,,c,3D
,,,,,,,20,female,B,2020-05-25_00h05.01.042,Remembering_Displays,2020.1.2,MacIntel,60,9,1,9,1,0.58387,0,6,6,2,1,Stimuli/testStimuliCube/6u_s_14.png,Stimuli/testStimuliCube/6u_s_14.png,0,9,0.634545,,,,,,,,,c,3D
,,,,,,,20,female,B,2020-05-25_00h05.01.042,Remembering_Displays,2020.1.2,MacIntel,60,1,1,1,1,0.767205,0,7,7,3,1,Stimuli/testStimuliCube/6u_s_14.png,Stimuli/testStimuliCube/6u_d_14.png,1,1,0.527585,,,,,,,,,c,3D
,,,,,,,20,female,B,2020-05-25_00h05.01.042,Remembering_Displays,2020.1.2,MacIntel,60,9,1,9,1,0.51916,0,8,8,22,1,Stimuli/testStimuliCube/6u_s_18_s.png,Stimuli/testStimuliCube/6u_s_18_s.png,0,9,0.697325,,,,,,,,,s,3D
,,,,,,,20,female,B,2020-05-25_00h05.01.042,Remembering_Displays,2020.1.2,MacIntel,60,9,1,9,1,0.56935,0,9,9,14,1,Stimuli/testStimuliCube/6u_s_14_s.png,Stimuli/testStimuliCube/6u_s_14_s.png,0,9,0.65339,,,,,,,,,s,3D
,,,,,,,20,female,B,2020-05-25_00h05.01.042,Remembering_Displays,2020.1.2,MacIntel,60,1,1,9,1,0.804085,0,10,10,17,1,Stimuli/testStimuliCube/6u_s_15_s.png,Stimuli/testStimuliCube/6u_d_15_s.png,1,1,0.548345,,,,,,,,,s,3D
,,,,,,,20,female,B,2020-05-25_00h05.01.042,Remembering_Displays,2020.1.2,MacIntel,60,1,1,9,1,0.438985,0,11,11,21,1,Stimuli/testStimuliCube/6u_s_17_s.png,Stimuli/testStimuliCube/6u_d_17_s.png,1,1,0.5805,,,,,,,,,s,3D
,,,,,,,20,female,B,2020-05-25_00h05.01.042,Remembering_Displays,2020.1.2,MacIntel,60,1,1,9,1,0.59088,0,12,12,7,1,Stimuli/testStimuliCube/6u_s_16.png,Stimuli/testStimuliCube/6u_d_16.png,1,1,0.591845,,,,,,,,,c,3D
,,,,,,,20,female,B,2020-05-25_00h05.01.042,Remembering_Displays,2020.1.2,MacIntel,60,9,1,9,1,0.800935,0,13,13,18,1,Stimuli/testStimuliCube/6u_s_16_s.png,Stimuli/testStimuliCube/6u_s_16_s.png,0,9,0.687385,,,,,,,,,s,3D
,,,,,,,20,female,B,2020-05-25_00h05.01.042,Remembering_Displays,2020.1.2,MacIntel,60,9,1,1,1,0.48909,0,14,14,12,1,Stimuli/testStimuliCube/6u_s_13_s.png,Stimuli/testStimuliCube/6u_s_13_s.png,0,9,0.606775,,,,,,,,,s,3D
,,,,,,,20,female,B,2020-05-25_00h05.01.042,Remembering_Displays,2020.1.2,MacIntel,60,9,1,1,1,0.53697,0,15,15,4,1,Stimuli/testStimuliCube/6u_s_15.png,Stimuli/testStimuliCube/6u_s_15.png,0,9,0.522005,,,,,,,,,c,3D
,,,,,,,20,female,B,2020-05-25_00h05.01.042,Remembering_Displays,2020.1.2,MacIntel,60,9,1,9,1,0.66881,0,16,16,20,1,Stimuli/testStimuliCube/6u_s_17_s.png,Stimuli/testStimuliCube/6u_s_17_s.png,0,9,0.67445,,,,,,,,,s,3D
,,,,,,,20,female,B,2020-05-25_00h05.01.042,Remembering_Displays,2020.1.2,MacIntel,60,1,1,9,1,0.672815,0,17,17,19,1,Stimuli/testStimuliCube/6u_s_16_s.png,Stimuli/testStimuliCube/6u_d_16_s.png,1,1,0.54845,,,,,,,,,s,3D
,,,,,,,20,female,B,2020-05-25_00h05.01.042,Remembering_Displays,2020.1.2,MacIntel,60,1,1,1,1,0.468015,0,18,18,9,1,Stimuli/testStimuliCube/6u_s_17.png,Stimuli/testStimuliCube/6u_d_17.png,1,1,0.622645,,,,,,,,,c,3D
,,,,,,,20,female,B,2020-05-25_00h05.01.042,Remembering_Displays,2020.1.2,MacIntel,60,9,1,9,1,0.53486,0,19,19,8,1,Stimuli/testStimuliCube/6u_s_17.png,Stimuli/testStimuliCube/6u_s_17.png,0,9,0.57026,,,,,,,,,c,3D
,,,,,,,20,female,B,2020-05-25_00h05.01.042,Remembering_Displays,2020.1.2,MacIntel,60,1,1,1,1,0.63583,0,20,20,23,1,Stimuli/testStimuliCube/6u_s_18_s.png,Stimuli/testStimuliCube/6u_d_18_s.png,1,1,0.563895,,,,,,,,,s,3D
,,,,,,,20,female,B,2020-05-25_00h05.01.042,Remembering_Displays,2020.1.2,MacIntel,60,1,1,1,1,0.899105,0,21,21,5,1,Stimuli/testStimuliCube/6u_s_15.png,Stimuli/testStimuliCube/6u_d_15.png,1,1,0.565285,,,,,,,,,c,3D
,,,,,,,20,female,B,2020-05-25_00h05.01.042,Remembering_Displays,2020.1.2,MacIntel,60,9,1,1,1,0.718675,0,22,22,6,1,Stimuli/testStimuliCube/6u_s_16.png,Stimuli/testStimuliCube/6u_s_16.png,0,9,0.70103,,,,,,,,,c,3D
,,,,,,,20,female,B,2020-05-25_00h05.01.042,Remembering_Displays,2020.1.2,MacIntel,60,9,1,9,1,0.93431,0,23,23,16,1,Stimuli/testStimuliCube/6u_s_15_s.png,Stimuli/testStimuliCube/6u_s_15_s.png,0,9,0.70518,,,,,,,,,s,3D
,,,,,,,20,female,B,2020-05-25_00h05.01.042,Remembering_Displays,2020.1.2,MacIntel,60,,,,,,,,,,,,,,,,0,6,6,6,1,Stimuli/trialListCubes3.xlsx,Instructions/instr_19.png,Progress: 120 of 192 trials completed,,
,,,,,,,20,female,B,2020-05-25_00h05.01.042,Remembering_Displays,2020.1.2,MacIntel,60,1,1,1,1,0.434325,0,0,0,17,1,Stimuli/testStimuliSquare/6u_s_9_s_2D.png,Stimuli/testStimuliSquare/6u_d_9_s_2D.png,1,1,0.565215,,,,,,,,,s,2D
,,,,,,,20,female,B,2020-05-25_00h05.01.042,Remembering_Displays,2020.1.2,MacIntel,60,1,1,9,0,0.467405,0,1,1,7,1,Stimuli/testStimuliSquare/6u_s_10_2D.png,Stimuli/testStimuliSquare/6u_d_10_2D.png,1,1,0.60737,,,,,,,,,c,2D
,,,,,,,20,female,B,2020-05-25_00h05.01.042,Remembering_Displays,2020.1.2,MacIntel,60,9,1,9,1,0.71958,0,2,2,4,1,Stimuli/testStimuliSquare/6u_s_9_2D.png,Stimuli/testStimuliSquare/6u_s_9_2D.png,0,9,0.755695,,,,,,,,,c,2D
,,,,,,,20,female,B,2020-05-25_00h05.01.042,Remembering_Displays,2020.1.2,MacIntel,60,1,1,1,1,0.75134,0,3,3,5,1,Stimuli/testStimuliSquare/6u_s_9_2D.png,Stimuli/testStimuliSquare/6u_d_9_2D.png,1,1,0.58518,,,,,,,,,c,2D
,,,,,,,20,female,B,2020-05-25_00h05.01.042,Remembering_Displays,2020.1.2,MacIntel,60,9,1,1,1,0.501175,0,4,4,6,1,Stimuli/testStimuliSquare/6u_s_10_2D.png,Stimuli/testStimuliSquare/6u_s_10_2D.png,0,9,0.727215,,,,,,,,,c,2D
,,,,,,,20,female,B,2020-05-25_00h05.01.042,Remembering_Displays,2020.1.2,MacIntel,60,1,1,9,1,0.6343,0,5,5,1,1,Stimuli/testStimuliSquare/6u_s_7_2D.png,Stimuli/testStimuliSquare/6u_d_7_2D.png,1,1,0.601795,,,,,,,,,c,2D
,,,,,,,20,female,B,2020-05-25_00h05.01.042,Remembering_Displays,2020.1.2,MacIntel,60,9,1,9,0,0.46988,0,6,6,14,1,Stimuli/testStimuliSquare/6u_s_8_s_2D.png,Stimuli/testStimuliSquare/6u_s_8_s_2D.png,0,9,0.6395,,,,,,,,,s,2D
,,,,,,,20,female,B,2020-05-25_00h05.01.042,Remembering_Displays,2020.1.2,MacIntel,60,1,1,1,1,2.00156,0,7,7,3,1,Stimuli/testStimuliSquare/6u_s_8_2D.png,Stimuli/testStimuliSquare/6u_d_8_2D.png,1,1,0.60577,,,,,,,,,c,2D
,,,,,,,20,female,B,2020-05-25_00h05.01.042,Remembering_Displays,2020.1.2,MacIntel,60,1,1,1,1,2.36884,0,8,8,11,1,Stimuli/testStimuliSquare/6u_s_12_2D.png,Stimuli/testStimuliSquare/6u_d_12_2D.png,1,1,0.6432,,,,,,,,,c,2D
,,,,,,,20,female,B,2020-05-25_00h05.01.042,Remembering_Displays,2020.1.2,MacIntel,60,1,1,1,1,0.918905,0,9,9,15,1,Stimuli/testStimuliSquare/6u_s_8_s_2D.png,Stimuli/testStimuliSquare/6u_d_8_s_2D.png,1,1,0.745665,,,,,,,,,s,2D
,,,,,,,20,female,B,2020-05-25_00h05.01.042,Remembering_Displays,2020.1.2,MacIntel,60,1,1,1,1,0.6394,0,10,10,19,1,Stimuli/testStimuliSquare/6u_s_10_s_2D.png,Stimuli/testStimuliSquare/6u_d_10_s_2D.png,1,1,0.69634,,,,,,,,,s,2D
,,,,,,,20,female,B,2020-05-25_00h05.01.042,Remembering_Displays,2020.1.2,MacIntel,60,1,0,1,1,0.818425,0,11,11,10,1,Stimuli/testStimuliSquare/6u_s_12_2D.png,Stimuli/testStimuliSquare/6u_s_12_2D.png,0,9,0.783865,,,,,,,,,c,2D
,,,,,,,20,female,B,2020-05-25_00h05.01.042,Remembering_Displays,2020.1.2,MacIntel,60,1,1,1,1,0.873445,0,12,12,21,1,Stimuli/testStimuliSquare/6u_s_11_s_2D.png,Stimuli/testStimuliSquare/6u_d_11_s_2D.png,1,1,0.66235,,,,,,,,,s,2D
,,,,,,,20,female,B,2020-05-25_00h05.01.042,Remembering_Displays,2020.1.2,MacIntel,60,9,1,1,1,0.405215,0,13,13,8,1,Stimuli/testStimuliSquare/6u_s_11_2D.png,Stimuli/testStimuliSquare/6u_s_11_2D.png,0,9,0.73893,,,,,,,,,c,2D
,,,,,,,20,female,B,2020-05-25_00h05.01.042,Remembering_Displays,2020.1.2,MacIntel,60,9,1,1,1,0.55514,0,14,14,16,1,Stimuli/testStimuliSquare/6u_s_9_s_2D.png,Stimuli/testStimuliSquare/6u_s_9_s_2D.png,0,9,0.687155,,,,,,,,,s,2D
,,,,,,,20,female,B,2020-05-25_00h05.01.042,Remembering_Displays,2020.1.2,MacIntel,60,9,1,1,1,0.80101,0,15,15,18,1,Stimuli/testStimuliSquare/6u_s_10_s_2D.png,Stimuli/testStimuliSquare/6u_s_10_s_2D.png,0,9,0.788575,,,,,,,,,s,2D
,,,,,,,20,female,B,2020-05-25_00h05.01.042,Remembering_Displays,2020.1.2,MacIntel,60,1,1,1,1,0.465,0,16,16,13,1,Stimuli/testStimuliSquare/6u_s_7_s_2D.png,Stimuli/testStimuliSquare/6u_d_7_s_2D.png,1,1,0.61364,,,,,,,,,s,2D
,,,,,,,20,female,B,2020-05-25_00h05.01.042,Remembering_Displays,2020.1.2,MacIntel,60,1,1,1,1,0.466485,0,17,17,9,1,Stimuli/testStimuliSquare/6u_s_11_2D.png,Stimuli/testStimuliSquare/6u_d_11_2D.png,1,1,0.6731,,,,,,,,,c,2D
,,,,,,,20,female,B,2020-05-25_00h05.01.042,Remembering_Displays,2020.1.2,MacIntel,60,9,0,9,1,0.655225,0,18,18,23,1,Stimuli/testStimuliSquare/6u_s_12_s_2D.png,Stimuli/testStimuliSquare/6u_d_12_s_2D.png,1,1,0.61197,,,,,,,,,s,2D
,,,,,,,20,female,B,2020-05-25_00h05.01.042,Remembering_Displays,2020.1.2,MacIntel,60,1,0,1,1,0.50164,0,19,19,22,1,Stimuli/testStimuliSquare/6u_s_12_s_2D.png,Stimuli/testStimuliSquare/6u_s_12_s_2D.png,0,9,0.710955,,,,,,,,,s,2D
,,,,,,,20,female,B,2020-05-25_00h05.01.042,Remembering_Displays,2020.1.2,MacIntel,60,9,1,1,1,0.85484,0,20,20,2,1,Stimuli/testStimuliSquare/6u_s_8_2D.png,Stimuli/testStimuliSquare/6u_s_8_2D.png,0,9,0.486255,,,,,,,,,c,2D
,,,,,,,20,female,B,2020-05-25_00h05.01.042,Remembering_Displays,2020.1.2,MacIntel,60,9,1,1,1,0.40289,0,21,21,12,1,Stimuli/testStimuliSquare/6u_s_7_s_2D.png,Stimuli/testStimuliSquare/6u_s_7_s_2D.png,0,9,0.58462,,,,,,,,,s,2D
,,,,,,,20,female,B,2020-05-25_00h05.01.042,Remembering_Displays,2020.1.2,MacIntel,60,9,1,1,1,0.890445,0,22,22,0,1,Stimuli/testStimuliSquare/6u_s_7_2D.png,Stimuli/testStimuliSquare/6u_s_7_2D.png,0,9,0.55945,,,,,,,,,c,2D
,,,,,,,20,female,B,2020-05-25_00h05.01.042,Remembering_Displays,2020.1.2,MacIntel,60,9,1,1,1,0.63511,0,23,23,20,1,Stimuli/testStimuliSquare/6u_s_11_s_2D.png,Stimuli/testStimuliSquare/6u_s_11_s_2D.png,0,9,0.655045,,,,,,,,,s,2D
,,,,,,,20,female,B,2020-05-25_00h05.01.042,Remembering_Displays,2020.1.2,MacIntel,60,,,,,,,,,,,,,,,,0,7,7,7,1,Stimuli/trialListSquares2.xlsx,Instructions/instr_18.png,Progress: 144 of 192 trials completed,,
,,,,,,,20,female,B,2020-05-25_00h05.01.042,Remembering_Displays,2020.1.2,MacIntel,60,1,1,1,1,0.703835,0,0,0,19,1,Stimuli/testStimuliCube/6u_s_22_s.png,Stimuli/testStimuliCube/6u_d_22_s.png,1,1,0.912715,,,,,,,,,s,3D
,,,,,,,20,female,B,2020-05-25_00h05.01.042,Remembering_Displays,2020.1.2,MacIntel,60,1,1,1,1,0.72221,0,1,1,13,1,Stimuli/testStimuliCube/6u_s_19_s.png,Stimuli/testStimuliCube/6u_d_19_s.png,1,1,0.631675,,,,,,,,,s,3D
,,,,,,,20,female,B,2020-05-25_00h05.01.042,Remembering_Displays,2020.1.2,MacIntel,60,1,1,9,1,0.622185,0,2,2,3,1,Stimuli/testStimuliCube/6u_s_20.png,Stimuli/testStimuliCube/6u_d_20.png,1,1,0.526225,,,,,,,,,c,3D
,,,,,,,20,female,B,2020-05-25_00h05.01.042,Remembering_Displays,2020.1.2,MacIntel,60,9,1,1,1,0.58422,0,3,3,8,1,Stimuli/testStimuliCube/6u_s_23.png,Stimuli/testStimuliCube/6u_s_23.png,0,9,0.5857,,,,,,,,,c,3D
,,,,,,,20,female,B,2020-05-25_00h05.01.042,Remembering_Displays,2020.1.2,MacIntel,60,1,1,1,1,0.670475,0,4,4,5,1,Stimuli/testStimuliCube/6u_s_21.png,Stimuli/testStimuliCube/6u_d_21.png,1,1,0.487075,,,,,,,,,c,3D
,,,,,,,20,female,B,2020-05-25_00h05.01.042,Remembering_Displays,2020.1.2,MacIntel,60,1,1,9,1,1.100985,0,5,5,21,1,Stimuli/testStimuliCube/6u_s_23_s.png,Stimuli/testStimuliCube/6u_d_23_s.png,1,1,0.748145,,,,,,,,,s,3D
,,,,,,,20,female,B,2020-05-25_00h05.01.042,Remembering_Displays,2020.1.2,MacIntel,60,9,1,1,1,0.568895,0,6,6,22,1,Stimuli/testStimuliCube/6u_s_24_s.png,Stimuli/testStimuliCube/6u_s_24_s.png,0,9,0.5163,,,,,,,,,s,3D
,,,,,,,20,female,B,2020-05-25_00h05.01.042,Remembering_Displays,2020.1.2,MacIntel,60,9,1,9,1,0.53338,0,7,7,0,1,Stimuli/testStimuliCube/6u_s_19.png,Stimuli/testStimuliCube/6u_s_19.png,0,9,0.61829,,,,,,,,,c,3D
,,,,,,,20,female,B,2020-05-25_00h05.01.042,Remembering_Displays,2020.1.2,MacIntel,60,9,1,1,1,0.317425,0,8,8,4,1,Stimuli/testStimuliCube/6u_s_21.png,Stimuli/testStimuliCube/6u_s_21.png,0,9,0.600245,,,,,,,,,c,3D
,,,,,,,20,female,B,2020-05-25_00h05.01.042,Remembering_Displays,2020.1.2,MacIntel,60,1,0,9,1,0.65144,0,9,9,12,1,Stimuli/testStimuliCube/6u_s_19_s.png,Stimuli/testStimuliCube/6u_s_19_s.png,0,9,0.84823,,,,,,,,,s,3D
,,,,,,,20,female,B,2020-05-25_00h05.01.042,Remembering_Displays,2020.1.2,MacIntel,60,9,1,1,1,0.60031,0,10,10,20,1,Stimuli/testStimuliCube/6u_s_23_s.png,Stimuli/testStimuliCube/6u_s_23_s.png,0,9,0.53551,,,,,,,,,s,3D
,,,,,,,20,female,B,2020-05-25_00h05.01.042,Remembering_Displays,2020.1.2,MacIntel,60,1,1,1,1,0.852435,0,11,11,17,1,Stimuli/testStimuliCube/6u_s_21_s.png,Stimuli/testStimuliCube/6u_d_21_s.png,1,1,0.632475,,,,,,,,,s,3D
,,,,,,,20,female,B,2020-05-25_00h05.01.042,Remembering_Displays,2020.1.2,MacIntel,60,9,1,1,1,1.168205,0,12,12,16,1,Stimuli/testStimuliCube/6u_s_21_s.png,Stimuli/testStimuliCube/6u_s_21_s.png,0,9,0.90525,,,,,,,,,s,3D
,,,,,,,20,female,B,2020-05-25_00h05.01.042,Remembering_Displays,2020.1.2,MacIntel,60,9,1,9,1,1.468335,0,13,13,18,1,Stimuli/testStimuliCube/6u_s_22_s.png,Stimuli/testStimuliCube/6u_s_22_s.png,0,9,0.60262,,,,,,,,,s,3D
,,,,,,,20,female,B,2020-05-25_00h05.01.042,Remembering_Displays,2020.1.2,MacIntel,60,9,1,1,1,0.936495,0,14,14,14,1,Stimuli/testStimuliCube/6u_s_20_s.png,Stimuli/testStimuliCube/6u_s_20_s.png,0,9,0.556515,,,,,,,,,s,3D
,,,,,,,20,female,B,2020-05-25_00h05.01.042,Remembering_Displays,2020.1.2,MacIntel,60,1,1,9,1,1.151025,0,15,15,23,1,Stimuli/testStimuliCube/6u_s_24_s.png,Stimuli/testStimuliCube/6u_d_24_s.png,1,1,0.764705,,,,,,,,,s,3D
,,,,,,,20,female,B,2020-05-25_00h05.01.042,Remembering_Displays,2020.1.2,MacIntel,60,9,1,9,1,0.65155,0,16,16,2,1,Stimuli/testStimuliCube/6u_s_20.png,Stimuli/testStimuliCube/6u_s_20.png,0,9,0.553885,,,,,,,,,c,3D
,,,,,,,20,female,B,2020-05-25_00h05.01.042,Remembering_Displays,2020.1.2,MacIntel,60,9,1,1,1,0.36702,0,17,17,6,1,Stimuli/testStimuliCube/6u_s_22.png,Stimuli/testStimuliCube/6u_s_22.png,0,9,0.984775,,,,,,,,,c,3D
,,,,,,,20,female,B,2020-05-25_00h05.01.042,Remembering_Displays,2020.1.2,MacIntel,60,1,1,9,1,0.685405,0,18,18,1,1,Stimuli/testStimuliCube/6u_s_19.png,Stimuli/testStimuliCube/6u_d_19.png,1,1,0.575225,,,,,,,,,c,3D
,,,,,,,20,female,B,2020-05-25_00h05.01.042,Remembering_Displays,2020.1.2,MacIntel,60,1,1,1,1,0.55167,0,19,19,15,1,Stimuli/testStimuliCube/6u_s_20_s.png,Stimuli/testStimuliCube/6u_d_20_s.png,1,1,0.52852,,,,,,,,,s,3D
,,,,,,,20,female,B,2020-05-25_00h05.01.042,Remembering_Displays,2020.1.2,MacIntel,60,1,1,9,1,0.736215,0,20,20,11,1,Stimuli/testStimuliCube/6u_s_24.png,Stimuli/testStimuliCube/6u_d_24.png,1,1,0.72863,,,,,,,,,c,3D
,,,,,,,20,female,B,2020-05-25_00h05.01.042,Remembering_Displays,2020.1.2,MacIntel,60,9,1,9,1,0.432455,0,21,21,10,1,Stimuli/testStimuliCube/6u_s_24.png,Stimuli/testStimuliCube/6u_s_24.png,0,9,0.670115,,,,,,,,,c,3D
,,,,,,,20,female,B,2020-05-25_00h05.01.042,Remembering_Displays,2020.1.2,MacIntel,60,1,1,1,1,0.58522,0,22,22,9,1,Stimuli/testStimuliCube/6u_s_23.png,Stimuli/testStimuliCube/6u_d_23.png,1,1,0.64438,,,,,,,,,c,3D
,,,,,,,20,female,B,2020-05-25_00h05.01.042,Remembering_Displays,2020.1.2,MacIntel,60,1,1,9,1,1.14985,0,23,23,7,1,Stimuli/testStimuliCube/6u_s_22.png,Stimuli/testStimuliCube/6u_d_22.png,1,1,0.608335,,,,,,,,,c,3D
,,,,,,,20,female,B,2020-05-25_00h05.01.042,Remembering_Displays,2020.1.2,MacIntel,60,,,,,,,,,,,,,,,,0,8,8,8,1,Stimuli/trialListCubes4.xlsx,Instructions/instr_19.png,Progress: 168 of 192 trials completed,,
,,,,,,,20,female,B,2020-05-25_00h05.01.042,Remembering_Displays,2020.1.2,MacIntel,60,1,1,1,1,0.41642,0,0,0,11,1,Stimuli/testStimuliSquare/6u_s_6_2D.png,Stimuli/testStimuliSquare/6u_d_6_2D.png,1,1,0.52021,,,,,,,,,c,2D
,,,,,,,20,female,B,2020-05-25_00h05.01.042,Remembering_Displays,2020.1.2,MacIntel,60,1,1,1,1,0.73363,0,1,1,7,1,Stimuli/testStimuliSquare/6u_s_4_2D.png,Stimuli/testStimuliSquare/6u_d_4_2D.png,1,1,0.60176,,,,,,,,,c,2D
,,,,,,,20,female,B,2020-05-25_00h05.01.042,Remembering_Displays,2020.1.2,MacIntel,60,1,1,9,1,0.81868,0,2,2,15,1,Stimuli/testStimuliSquare/6u_s_2_s_2D.png,Stimuli/testStimuliSquare/6u_d_2_s_2D.png,1,1,0.841385,,,,,,,,,s,2D
,,,,,,,20,female,B,2020-05-25_00h05.01.042,Remembering_Displays,2020.1.2,MacIntel,60,1,0,9,1,0.58416,0,3,3,12,1,Stimuli/testStimuliSquare/6u_s_1_s_2D.png,Stimuli/testStimuliSquare/6u_s_1_s_2D.png,0,9,1.036075,,,,,,,,,s,2D
,,,,,,,20,female,B,2020-05-25_00h05.01.042,Remembering_Displays,2020.1.2,MacIntel,60,9,0,1,1,0.80195,0,4,4,21,1,Stimuli/testStimuliSquare/6u_s_5_s_2D.png,Stimuli/testStimuliSquare/6u_d_5_s_2D.png,1,1,0.947345,,,,,,,,,s,2D
,,,,,,,20,female,B,2020-05-25_00h05.01.042,Remembering_Displays,2020.1.2,MacIntel,60,9,1,9,1,0.634755,0,5,5,0,1,Stimuli/testStimuliSquare/6u_s_1_2D.png,Stimuli/testStimuliSquare/6u_s_1_2D.png,0,9,0.98711,,,,,,,,,c,2D
,,,,,,,20,female,B,2020-05-25_00h05.01.042,Remembering_Displays,2020.1.2,MacIntel,60,1,1,1,1,0.46586,0,6,6,13,1,Stimuli/testStimuliSquare/6u_s_1_s_2D.png,Stimuli/testStimuliSquare/6u_d_1_s_2D.png,1,1,0.56129,,,,,,,,,s,2D
,,,,,,,20,female,B,2020-05-25_00h05.01.042,Remembering_Displays,2020.1.2,MacIntel,60,1,1,9,1,0.6007,0,7,7,17,1,Stimuli/testStimuliSquare/6u_s_3_s_2D.png,Stimuli/testStimuliSquare/6u_d_3_s_2D.png,1,1,0.69865,,,,,,,,,s,2D
,,,,,,,20,female,B,2020-05-25_00h05.01.042,Remembering_Displays,2020.1.2,MacIntel,60,1,1,1,1,0.488865,0,8,8,19,1,Stimuli/testStimuliSquare/6u_s_4_s_2D.png,Stimuli/testStimuliSquare/6u_d_4_s_2D.png,1,1,0.456725,,,,,,,,,s,2D
,,,,,,,20,female,B,2020-05-25_00h05.01.042,Remembering_Displays,2020.1.2,MacIntel,60,9,1,9,1,0.502095,0,9,9,6,1,Stimuli/testStimuliSquare/6u_s_4_2D.png,Stimuli/testStimuliSquare/6u_s_4_2D.png,0,9,0.938835,,,,,,,,,c,2D
,,,,,,,20,female,B,2020-05-25_00h05.01.042,Remembering_Displays,2020.1.2,MacIntel,60,1,1,1,1,0.537805,0,10,10,1,1,Stimuli/testStimuliSquare/6u_s_1_2D.png,Stimuli/testStimuliSquare/6u_d_1_2D.png,1,1,0.548685,,,,,,,,,c,2D
,,,,,,,20,female,B,2020-05-25_00h05.01.042,Remembering_Displays,2020.1.2,MacIntel,60,9,1,9,1,0.451485,0,11,11,2,1,Stimuli/testStimuliSquare/6u_s_2_2D.png,Stimuli/testStimuliSquare/6u_s_2_2D.png,0,9,0.5147,,,,,,,,,c,2D
,,,,,,,20,female,B,2020-05-25_00h05.01.042,Remembering_Displays,2020.1.2,MacIntel,60,9,1,9,1,0.534155,0,12,12,4,1,Stimuli/testStimuliSquare/6u_s_3_2D.png,Stimuli/testStimuliSquare/6u_s_3_2D.png,0,9,0.48986,,,,,,,,,c,2D
,,,,,,,20,female,B,2020-05-25_00h05.01.042,Remembering_Displays,2020.1.2,MacIntel,60,1,1,1,1,0.734,0,13,13,23,1,Stimuli/testStimuliSquare/6u_s_6_s_2D.png,Stimuli/testStimuliSquare/6u_d_6_s_2D.png,1,1,0.581805,,,,,,,,,s,2D
,,,,,,,20,female,B,2020-05-25_00h05.01.042,Remembering_Displays,2020.1.2,MacIntel,60,9,1,1,1,0.438105,0,14,14,16,1,Stimuli/testStimuliSquare/6u_s_3_s_2D.png,Stimuli/testStimuliSquare/6u_s_3_s_2D.png,0,9,0.74161,,,,,,,,,s,2D
,,,,,,,20,female,B,2020-05-25_00h05.01.042,Remembering_Displays,2020.1.2,MacIntel,60,1,1,9,1,1.417495,0,15,15,5,1,Stimuli/testStimuliSquare/6u_s_3_2D.png,Stimuli/testStimuliSquare/6u_d_3_2D.png,1,1,0.568735,,,,,,,,,c,2D
,,,,,,,20,female,B,2020-05-25_00h05.01.042,Remembering_Displays,2020.1.2,MacIntel,60,9,1,9,1,0.420345,0,16,16,18,1,Stimuli/testStimuliSquare/6u_s_4_s_2D.png,Stimuli/testStimuliSquare/6u_s_4_s_2D.png,0,9,0.819345,,,,,,,,,s,2D
,,,,,,,20,female,B,2020-05-25_00h05.01.042,Remembering_Displays,2020.1.2,MacIntel,60,9,1,1,1,0.851455,0,17,17,14,1,Stimuli/testStimuliSquare/6u_s_2_s_2D.png,Stimuli/testStimuliSquare/6u_s_2_s_2D.png,0,9,0.90461,,,,,,,,,s,2D
,,,,,,,20,female,B,2020-05-25_00h05.01.042,Remembering_Displays,2020.1.2,MacIntel,60,9,1,1,1,0.485565,0,18,18,20,1,Stimuli/testStimuliSquare/6u_s_5_s_2D.png,Stimuli/testStimuliSquare/6u_s_5_s_2D.png,0,9,0.939405,,,,,,,,,s,2D
,,,,,,,20,female,B,2020-05-25_00h05.01.042,Remembering_Displays,2020.1.2,MacIntel,60,1,1,1,1,0.55259,0,19,19,3,1,Stimuli/testStimuliSquare/6u_s_2_2D.png,Stimuli/testStimuliSquare/6u_d_2_2D.png,1,1,0.653575,,,,,,,,,c,2D
,,,,,,,20,female,B,2020-05-25_00h05.01.042,Remembering_Displays,2020.1.2,MacIntel,60,9,0,1,1,0.451095,0,20,20,9,1,Stimuli/testStimuliSquare/6u_s_5_2D.png,Stimuli/testStimuliSquare/6u_d_5_2D.png,1,1,0.70662,,,,,,,,,c,2D
,,,,,,,20,female,B,2020-05-25_00h05.01.042,Remembering_Displays,2020.1.2,MacIntel,60,9,1,9,1,0.634195,0,21,21,10,1,Stimuli/testStimuliSquare/6u_s_6_2D.png,Stimuli/testStimuliSquare/6u_s_6_2D.png,0,9,0.521875,,,,,,,,,c,2D
,,,,,,,20,female,B,2020-05-25_00h05.01.042,Remembering_Displays,2020.1.2,MacIntel,60,9,1,9,1,0.451465,0,22,22,22,1,Stimuli/testStimuliSquare/6u_s_6_s_2D.png,Stimuli/testStimuliSquare/6u_s_6_s_2D.png,0,9,0.571075,,,,,,,,,s,2D
,,,,,,,20,female,B,2020-05-25_00h05.01.042,Remembering_Displays,2020.1.2,MacIntel,60,9,1,9,1,0.417825,0,23,23,8,1,Stimuli/testStimuliSquare/6u_s_5_2D.png,Stimuli/testStimuliSquare/6u_s_5_2D.png,0,9,0.48764,,,,,,,,,c,2D