instr_Loop.thisRepN,instr_Loop.thisTrialN,instr_Loop.thisN,instr_Loop.thisIndex,instr_Loop.ran,instructionImage,time,age,sex (female/male),order,date,expName,psychopyVersion,OS,frameRate,struc_judge_respond.keys,struc_judge_respond.corr,dual_respond.keys,dual_respond.corr,dual_respond.rt,trials.thisRepN,trials.thisTrialN,trials.thisN,trials.thisIndex,trials.ran,stim1,stim2,isAnyChange,corrAns,struc_judge_respond.rt,selectBlock.thisRepN,selectBlock.thisTrialN,selectBlock.thisN,selectBlock.thisIndex,selectBlock.ran,condsFile,condsImage,remaining,connected,dimensionality
0,0,0,0,1,Instructions/consent.png,3,20,female,B,2020-05-25_14h17.27.164,Remembering_Displays,2020.1.2,MacIntel,60,,,,,,,,,,,,,,,,,,,,,,,,,
0,1,1,1,1,Instructions/instr_1.png,5,20,female,B,2020-05-25_14h17.27.164,Remembering_Displays,2020.1.2,MacIntel,60,,,,,,,,,,,,,,,,,,,,,,,,,
0,2,2,2,1,Instructions/instr_2.png,3,20,female,B,2020-05-25_14h17.27.164,Remembering_Displays,2020.1.2,MacIntel,60,,,,,,,,,,,,,,,,,,,,,,,,,
0,3,3,3,1,Instructions/instr_3.png,5,20,female,B,2020-05-25_14h17.27.164,Remembering_Displays,2020.1.2,MacIntel,60,,,,,,,,,,,,,,,,,,,,,,,,,
0,4,4,4,1,Instructions/instr_4.png,1,20,female,B,2020-05-25_14h17.27.164,Remembering_Displays,2020.1.2,MacIntel,60,,,,,,,,,,,,,,,,,,,,,,,,,
0,5,5,5,1,Instructions/instr_5.png,1,20,female,B,2020-05-25_14h17.27.164,Remembering_Displays,2020.1.2,MacIntel,60,,,,,,,,,,,,,,,,,,,,,,,,,
0,6,6,6,1,Instructions/instr_6.png,1,20,female,B,2020-05-25_14h17.27.164,Remembering_Displays,2020.1.2,MacIntel,60,,,,,,,,,,,,,,,,,,,,,,,,,
0,7,7,7,1,Instructions/instr_7.png,1,20,female,B,2020-05-25_14h17.27.164,Remembering_Displays,2020.1.2,MacIntel,60,,,,,,,,,,,,,,,,,,,,,,,,,
0,8,8,8,1,Instructions/instr_8.png,3,20,female,B,2020-05-25_14h17.27.164,Remembering_Displays,2020.1.2,MacIntel,60,,,,,,,,,,,,,,,,,,,,,,,,,
0,9,9,9,1,Instructions/instr_9.png,3,20,female,B,2020-05-25_14h17.27.164,Remembering_Displays,2020.1.2,MacIntel,60,,,,,,,,,,,,,,,,,,,,,,,,,
0,10,10,10,1,Instructions/instr_10.png,3,20,female,B,2020-05-25_14h17.27.164,Remembering_Displays,2020.1.2,MacIntel,60,,,,,,,,,,,,,,,,,,,,,,,,,
0,11,11,11,1,Instructions/instr_11.png,3,20,female,B,2020-05-25_14h17.27.164,Remembering_Displays,2020.1.2,MacIntel,60,,,,,,,,,,,,,,,,,,,,,,,,,
0,12,12,12,1,Instructions/instr_12.png,3,20,female,B,2020-05-25_14h17.27.164,Remembering_Displays,2020.1.2,MacIntel,60,,,,,,,,,,,,,,,,,,,,,,,,,
0,13,13,13,1,Instructions/instr_13.png,3,20,female,B,2020-05-25_14h17.27.164,Remembering_Displays,2020.1.2,MacIntel,60,,,,,,,,,,,,,,,,,,,,,,,,,
0,14,14,14,1,Instructions/instr_14.png,3,20,female,B,2020-05-25_14h17.27.164,Remembering_Displays,2020.1.2,MacIntel,60,,,,,,,,,,,,,,,,,,,,,,,,,
0,15,15,15,1,Instructions/instr_15.png,3,20,female,B,2020-05-25_14h17.27.164,Remembering_Displays,2020.1.2,MacIntel,60,,,,,,,,,,,,,,,,,,,,,,,,,
0,16,16,16,1,Instructions/instr_16.png,5,20,female,B,2020-05-25_14h17.27.164,Remembering_Displays,2020.1.2,MacIntel,60,,,,,,,,,,,,,,,,,,,,,,,,,
,,,,,,,20,female,B,2020-05-25_14h17.27.164,Remembering_Displays,2020.1.2,MacIntel,60,,0,1,1,2.621265,0,0,0,0,1,Stimuli/practiceStimuliCube/practice1_s.png,Stimuli/practiceStimuliCube/practice1_s.png,0,9,,,,,,,,,,,
,,,,,,,20,female,B,2020-05-25_14h17.27.164,Remembering_Displays,2020.1.2,MacIntel,60,9,0,1,0,1.2302,0,1,1,3,1,Stimuli/practiceStimuliCube/practice4_s.png,Stimuli/practiceStimuliCube/practice4_d.png,1,1,1.245905,,,,,,,,,,
,,,,,,,20,female,B,2020-05-25_14h17.27.164,Remembering_Displays,2020.1.2,MacIntel,60,9,0,1,0,2.036735,0,2,2,6,1,Stimuli/practiceStimuliCube/practice3_s.png,Stimuli/practiceStimuliCube/practice3_d.png,1,1,0.864345,,,,,,,,,,
,,,,,,,20,female,B,2020-05-25_14h17.27.164,Remembering_Displays,2020.1.2,MacIntel,60,9,1,1,1,1.917485,0,3,3,5,1,Stimuli/practiceStimuliCube/practice2_s.png,Stimuli/practiceStimuliCube/practice2_s.png,0,9,0.987905,,,,,,,,,,
,,,,,,,20,female,B,2020-05-25_14h17.27.164,Remembering_Displays,2020.1.2,MacIntel,60,9,1,9,1,1.016945,0,4,4,7,1,Stimuli/practiceStimuliCube/practice4_s.png,Stimuli/practiceStimuliCube/practice4_s.png,0,9,0.73505,,,,,,,,,,
,,,,,,,20,female,B,2020-05-25_14h17.27.164,Remembering_Displays,2020.1.2,MacIntel,60,1,1,9,0,0.70226,0,5,5,1,1,Stimuli/practiceStimuliCube/practice2_s.png,Stimuli/practiceStimuliCube/practice2_d.png,1,1,0.79646,,,,,,,,,,
,,,,,,,20,female,B,2020-05-25_14h17.27.164,Remembering_Displays,2020.1.2,MacIntel,60,9,1,1,0,0.818035,0,6,6,2,1,Stimuli/practiceStimuliCube/practice3_s.png,Stimuli/practiceStimuliCube/practice3_s.png,0,9,0.76983,,,,,,,,,,
,,,,,,,20,female,B,2020-05-25_14h17.27.164,Remembering_Displays,2020.1.2,MacIntel,60,,0,9,1,0.75057,0,7,7,4,1,Stimuli/practiceStimuliCube/practice1_s.png,Stimuli/practiceStimuliCube/practice1_d.png,1,1,,,,,,,,,,,
,,,,,,,20,female,B,2020-05-25_14h17.27.164,Remembering_Displays,2020.1.2,MacIntel,60,,,,,,,,,,,,,,,,0,0,0,0,1,Stimuli/practiceListCubes.xlsx,Instructions/instr_practice_B.png,Practice trials completed,,
,,,,,,,20,female,B,2020-05-25_14h17.27.164,Remembering_Displays,2020.1.2,MacIntel,60,9,1,9,1,0.74969,0,0,0,10,1,Stimuli/testStimuliCube/6u_s_6.png,Stimuli/testStimuliCube/6u_s_6.png,0,9,0.90088,,,,,,,,,c,3D
,,,,,,,20,female,B,2020-05-25_14h17.27.164,Remembering_Displays,2020.1.2,MacIntel,60,9,1,1,1,0.58626,0,1,1,4,1,Stimuli/testStimuliCube/6u_s_3.png,Stimuli/testStimuliCube/6u_s_3.png,0,9,0.51729,,,,,,,,,c,3D
,,,,,,,20,female,B,2020-05-25_14h17.27.164,Remembering_Displays,2020.1.2,MacIntel,60,9,0,1,1,1.01711,0,2,2,15,1,Stimuli/testStimuliCube/6u_s_2_s.png,Stimuli/testStimuliCube/6u_d_2_s.png,1,1,0.532585,,,,,,,,,s,3D
,,,,,,,20,female,B,2020-05-25_14h17.27.164,Remembering_Displays,2020.1.2,MacIntel,60,9,1,1,1,0.9177,0,3,3,2,1,Stimuli/testStimuliCube/6u_s_2.png,Stimuli/testStimuliCube/6u_s_2.png,0,9,0.61864,,,,,,,,,c,3D
,,,,,,,20,female,B,2020-05-25_14h17.27.164,Remembering_Displays,2020.1.2,MacIntel,60,9,1,9,1,0.70721,0,4,4,20,1,Stimuli/testStimuliCube/6u_s_5_s.png,Stimuli/testStimuliCube/6u_s_5_s.png,0,9,0.7221,,,,,,,,,s,3D
,,,,,,,20,female,B,2020-05-25_14h17.27.164,Remembering_Displays,2020.1.2,MacIntel,60,1,1,9,1,0.67103,0,5,5,17,1,Stimuli/testStimuliCube/6u_s_3_s.png,Stimuli/testStimuliCube/6u_d_3_s.png,1,1,1.161505,,,,,,,,,s,3D
,,,,,,,20,female,B,2020-05-25_14h17.27.164,Remembering_Displays,2020.1.2,MacIntel,60,1,0,1,1,1.66448,0,6,6,12,1,Stimuli/testStimuliCube/6u_s_1_s.png,Stimuli/testStimuliCube/6u_s_1_s.png,0,9,1.33838,,,,,,,,,s,3D
,,,,,,,20,female,B,2020-05-25_14h17.27.164,Remembering_Displays,2020.1.2,MacIntel,60,9,1,1,1,0.584865,0,7,7,14,1,Stimuli/testStimuliCube/6u_s_2_s.png,Stimuli/testStimuliCube/6u_s_2_s.png,0,9,0.619355,,,,,,,,,s,3D
,,,,,,,20,female,B,2020-05-25_14h17.27.164,Remembering_Displays,2020.1.2,MacIntel,60,9,1,9,1,0.78131,0,8,8,0,1,Stimuli/testStimuliCube/6u_s_1.png,Stimuli/testStimuliCube/6u_s_1.png,0,9,0.551785,,,,,,,,,c,3D
,,,,,,,20,female,B,2020-05-25_14h17.27.164,Remembering_Displays,2020.1.2,MacIntel,60,9,1,1,1,0.435675,0,9,9,22,1,Stimuli/testStimuliCube/6u_s_6_s.png,Stimuli/testStimuliCube/6u_s_6_s.png,0,9,0.602395,,,,,,,,,s,3D
,,,,,,,20,female,B,2020-05-25_14h17.27.164,Remembering_Displays,2020.1.2,MacIntel,60,9,0,9,1,0.76417,0,10,10,3,1,Stimuli/testStimuliCube/6u_s_2.png,Stimuli/testStimuliCube/6u_d_2.png,1,1,0.705035,,,,,,,,,c,3D
,,,,,,,20,female,B,2020-05-25_14h17.27.164,Remembering_Displays,2020.1.2,MacIntel,60,9,0,1,1,0.782405,0,11,11,11,1,Stimuli/testStimuliCube/6u_s_6.png,Stimuli/testStimuliCube/6u_d_6.png,1,1,0.44113,,,,,,,,,c,3D
,,,,,,,20,female,B,2020-05-25_14h17.27.164,Remembering_Displays,2020.1.2,MacIntel,60,9,0,9,1,0.749415,0,12,12,7,1,Stimuli/testStimuliCube/6u_s_4.png,Stimuli/testStimuliCube/6u_d_4.png,1,1,0.476055,,,,,,,,,c,3D
,,,,,,,20,female,B,2020-05-25_14h17.27.164,Remembering_Displays,2020.1.2,MacIntel,60,,0,1,0,1.396635,0,13,13,21,1,Stimuli/testStimuliCube/6u_s_5_s.png,Stimuli/testStimuliCube/6u_d_5_s.png,1,1,,,,,,,,,,s,3D
,,,,,,,20,female,B,2020-05-25_14h17.27.164,Remembering_Displays,2020.1.2,MacIntel,60,9,1,1,1,0.5,0,14,14,8,1,Stimuli/testStimuliCube/6u_s_5.png,Stimuli/testStimuliCube/6u_s_5.png,0,9,0.514145,,,,,,,,,c,3D
,,,,,,,20,female,B,2020-05-25_14h17.27.164,Remembering_Displays,2020.1.2,MacIntel,60,1,1,9,1,0.553985,0,15,15,19,1,Stimuli/testStimuliCube/6u_s_4_s.png,Stimuli/testStimuliCube/6u_d_4_s.png,1,1,0.722985,,,,,,,,,s,3D
,,,,,,,20,female,B,2020-05-25_14h17.27.164,Remembering_Displays,2020.1.2,MacIntel,60,9,1,1,1,1.750655,0,16,16,6,1,Stimuli/testStimuliCube/6u_s_4.png,Stimuli/testStimuliCube/6u_s_4.png,0,9,0.49274,,,,,,,,,c,3D
,,,,,,,20,female,B,2020-05-25_14h17.27.164,Remembering_Displays,2020.1.2,MacIntel,60,9,1,1,1,0.533775,0,17,17,16,1,Stimuli/testStimuliCube/6u_s_3_s.png,Stimuli/testStimuliCube/6u_s_3_s.png,0,9,0.51938,,,,,,,,,s,3D
,,,,,,,20,female,B,2020-05-25_14h17.27.164,Remembering_Displays,2020.1.2,MacIntel,60,9,0,1,1,1.041325,0,18,18,23,1,Stimuli/testStimuliCube/6u_s_6_s.png,Stimuli/testStimuliCube/6u_d_6_s.png,1,1,0.59581,,,,,,,,,s,3D
,,,,,,,20,female,B,2020-05-25_14h17.27.164,Remembering_Displays,2020.1.2,MacIntel,60,1,1,9,1,0.48757,0,19,19,13,1,Stimuli/testStimuliCube/6u_s_1_s.png,Stimuli/testStimuliCube/6u_d_1_s.png,1,1,0.74267,,,,,,,,,s,3D
,,,,,,,20,female,B,2020-05-25_14h17.27.164,Remembering_Displays,2020.1.2,MacIntel,60,9,0,1,0,1.018065,0,20,20,9,1,Stimuli/testStimuliCube/6u_s_5.png,Stimuli/testStimuliCube/6u_d_5.png,1,1,0.430675,,,,,,,,,c,3D
,,,,,,,20,female,B,2020-05-25_14h17.27.164,Remembering_Displays,2020.1.2,MacIntel,60,9,0,1,0,0.833835,0,21,21,5,1,Stimuli/testStimuliCube/6u_s_3.png,Stimuli/testStimuliCube/6u_d_3.png,1,1,0.62619,,,,,,,,,c,3D
,,,,,,,20,female,B,2020-05-25_14h17.27.164,Remembering_Displays,2020.1.2,MacIntel,60,1,0,1,1,0.580795,0,22,22,18,1,Stimuli/testStimuliCube/6u_s_4_s.png,Stimuli/testStimuliCube/6u_s_4_s.png,0,9,0.87176,,,,,,,,,s,3D
,,,,,,,20,female,B,2020-05-25_14h17.27.164,Remembering_Displays,2020.1.2,MacIntel,60,1,1,9,1,1.16303,0,23,23,1,1,Stimuli/testStimuliCube/6u_s_1.png,Stimuli/testStimuliCube/6u_d_1.png,1,1,0.661665,,,,,,,,,c,3D
,,,,,,,20,female,B,2020-05-25_14h17.27.164,Remembering_Displays,2020.1.2,MacIntel,60,,,,,,,,,,,,,,,,0,1,1,1,1,Stimuli/trialListCubes1.xlsx,Instructions/instr_19.png,Progress: 24 of 192 trials completed,,
,,,,,,,20,female,B,2020-05-25_14h17.27.164,Remembering_Displays,2020.1.2,MacIntel,60,9,1,1,0,0.63816,0,0,0,2,1,Stimuli/practiceStimuliSquare/practice3_s.png,Stimuli/practiceStimuliSquare/practice3_s.png,0,9,0.55719,,,,,,,,,,
,,,,,,,20,female,B,2020-05-25_14h17.27.164,Remembering_Displays,2020.1.2,MacIntel,60,9,1,9,1,0.4513,0,1,1,0,1,Stimuli/practiceStimuliSquare/practice1_s.png,Stimuli/practiceStimuliSquare/practice1_s.png,0,9,0.5739,,,,,,,,,,
,,,,,,,20,female,B,2020-05-25_14h17.27.164,Remembering_Displays,2020.1.2,MacIntel,60,1,1,9,1,0.433785,0,2,2,3,1,Stimuli/practiceStimuliSquare/practice4_s.png,Stimuli/practiceStimuliSquare/practice4_d.png,1,1,0.69161,,,,,,,,,,
,,,,,,,20,female,B,2020-05-25_14h17.27.164,Remembering_Displays,2020.1.2,MacIntel,60,1,1,9,1,0.41631,0,3,3,4,1,Stimuli/practiceStimuliSquare/practice1_s.png,Stimuli/practiceStimuliSquare/practice1_d.png,1,1,0.544975,,,,,,,,,,
,,,,,,,20,female,B,2020-05-25_14h17.27.164,Remembering_Displays,2020.1.2,MacIntel,60,1,1,9,0,0.85556,0,4,4,1,1,Stimuli/practiceStimuliSquare/practice2_s.png,Stimuli/practiceStimuliSquare/practice2_d.png,1,1,0.572155,,,,,,,,,,
,,,,,,,20,female,B,2020-05-25_14h17.27.164,Remembering_Displays,2020.1.2,MacIntel,60,9,0,9,1,0.638325,0,5,5,6,1,Stimuli/practiceStimuliSquare/practice3_s.png,Stimuli/practiceStimuliSquare/practice3_d.png,1,1,0.58454,,,,,,,,,,
,,,,,,,20,female,B,2020-05-25_14h17.27.164,Remembering_Displays,2020.1.2,MacIntel,60,9,1,9,1,0.48587,0,6,6,5,1,Stimuli/practiceStimuliSquare/practice2_s.png,Stimuli/practiceStimuliSquare/practice2_s.png,0,9,0.50726,,,,,,,,,,
,,,,,,,20,female,B,2020-05-25_14h17.27.164,Remembering_Displays,2020.1.2,MacIntel,60,9,1,9,1,10.549505,0,7,7,7,1,Stimuli/practiceStimuliSquare/practice4_s.png,Stimuli/practiceStimuliSquare/practice4_s.png,0,9,0.535505,,,,,,,,,,
,,,,,,,20,female,B,2020-05-25_14h17.27.164,Remembering_Displays,2020.1.2,MacIntel,60,,,,,,,,,,,,,,,,0,2,2,2,1,Stimuli/practiceListSquares.xlsx,Instructions/instr_practice_A.png,Practice trials completed,,
,,,,,,,20,female,B,2020-05-25_14h17.27.164,Remembering_Displays,2020.1.2,MacIntel,60,1,0,9,1,0.78803,0,0,0,14,1,Stimuli/testStimuliSquare/6u_s_20_s_2D.png,Stimuli/testStimuliSquare/6u_s_20_s_2D.png,0,9,0.63947,,,,,,,,,s,2D
,,,,,,,20,female,B,2020-05-25_14h17.27.164,Remembering_Displays,2020.1.2,MacIntel,60,9,1,9,1,0.42406,0,1,1,18,1,Stimuli/testStimuliSquare/6u_s_22_s_2D.png,Stimuli/testStimuliSquare/6u_s_22_s_2D.png,0,9,0.5893,,,,,,,,,s,2D
,,,,,,,20,female,B,2020-05-25_14h17.27.164,Remembering_Displays,2020.1.2,MacIntel,60,9,1,9,1,0.652915,0,2,2,2,1,Stimuli/testStimuliSquare/6u_s_20_2D.png,Stimuli/testStimuliSquare/6u_s_20_2D.png,0,9,0.470795,,,,,,,,,c,2D
,,,,,,,20,female,B,2020-05-25_14h17.27.164,Remembering_Displays,2020.1.2,MacIntel,60,9,1,9,1,0.4138,0,3,3,0,1,Stimuli/testStimuliSquare/6u_s_19_2D.png,Stimuli/testStimuliSquare/6u_s_19_2D.png,0,9,0.38846,,,,,,,,,c,2D
,,,,,,,20,female,B,2020-05-25_14h17.27.164,Remembering_Displays,2020.1.2,MacIntel,60,1,1,9,1,0.41352,0,4,4,17,1,Stimuli/testStimuliSquare/6u_s_21_s_2D.png,Stimuli/testStimuliSquare/6u_d_21_s_2D.png,1,1,0.76324,,,,,,,,,s,2D
,,,,,,,20,female,B,2020-05-25_14h17.27.164,Remembering_Displays,2020.1.2,MacIntel,60,9,0,1,1,0.6382,0,5,5,9,1,Stimuli/testStimuliSquare/6u_s_23_2D.png,Stimuli/testStimuliSquare/6u_d_23_2D.png,1,1,0.622795,,,,,,,,,c,2D
,,,,,,,20,female,B,2020-05-25_14h17.27.164,Remembering_Displays,2020.1.2,MacIntel,60,9,0,1,1,0.45456,0,6,6,5,1,Stimuli/testStimuliSquare/6u_s_21_2D.png,Stimuli/testStimuliSquare/6u_d_21_2D.png,1,1,0.40141,,,,,,,,,c,2D
,,,,,,,20,female,B,2020-05-25_14h17.27.164,Remembering_Displays,2020.1.2,MacIntel,60,1,1,9,0,0.43424,0,7,7,15,1,Stimuli/testStimuliSquare/6u_s_20_s_2D.png,Stimuli/testStimuliSquare/6u_d_20_s_2D.png,1,1,0.54483,,,,,,,,,s,2D
,,,,,,,20,female,B,2020-05-25_14h17.27.164,Remembering_Displays,2020.1.2,MacIntel,60,9,1,9,1,1.15037,0,8,8,10,1,Stimuli/testStimuliSquare/6u_s_24_2D.png,Stimuli/testStimuliSquare/6u_s_24_2D.png,0,9,0.788845,,,,,,,,,c,2D
,,,,,,,20,female,B,2020-05-25_14h17.27.164,Remembering_Displays,2020.1.2,MacIntel,60,1,1,1,1,0.399155,0,9,9,1,1,Stimuli/testStimuliSquare/6u_s_19_2D.png,Stimuli/testStimuliSquare/6u_d_19_2D.png,1,1,0.449885,,,,,,,,,c,2D
,,,,,,,20,female,B,2020-05-25_14h17.27.164,Remembering_Displays,2020.1.2,MacIntel,60,1,1,9,1,0.432685,0,10,10,13,1,Stimuli/testStimuliSquare/6u_s_19_s_2D.png,Stimuli/testStimuliSquare/6u_d_19_s_2D.png,1,1,0.592625,,,,,,,,,s,2D
,,,,,,,20,female,B,2020-05-25_14h17.27.164,Remembering_Displays,2020.1.2,MacIntel,60,9,0,9,0,1.184925,0,11,11,21,1,Stimuli/testStimuliSquare/6u_s_23_s_2D.png,Stimuli/testStimuliSquare/6u_d_23_s_2D.png,1,1,0.56738,,,,,,,,,s,2D
,,,,,,,20,female,B,2020-05-25_14h17.27.164,Remembering_Displays,2020.1.2,MacIntel,60,9,0,9,0,0.918695,0,12,12,19,1,Stimuli/testStimuliSquare/6u_s_22_s_2D.png,Stimuli/testStimuliSquare/6u_d_22_s_2D.png,1,1,0.66349,,,,,,,,,s,2D
,,,,,,,20,female,B,2020-05-25_14h17.27.164,Remembering_Displays,2020.1.2,MacIntel,60,9,0,9,0,1.00804,0,13,13,11,1,Stimuli/testStimuliSquare/6u_s_24_2D.png,Stimuli/testStimuliSquare/6u_d_24_2D.png,1,1,0.971045,,,,,,,,,c,2D
,,,,,,,20,female,B,2020-05-25_14h17.27.164,Remembering_Displays,2020.1.2,MacIntel,60,9,0,1,1,0.948155,0,14,14,23,1,Stimuli/testStimuliSquare/6u_s_24_s_2D.png,Stimuli/testStimuliSquare/6u_d_24_s_2D.png,1,1,0.962755,,,,,,,,,s,2D
,,,,,,,20,female,B,2020-05-25_14h17.27.164,Remembering_Displays,2020.1.2,MacIntel,60,9,1,9,1,0.40048,0,15,15,22,1,Stimuli/testStimuliSquare/6u_s_24_s_2D.png,Stimuli/testStimuliSquare/6u_s_24_s_2D.png,0,9,0.62379,,,,,,,,,s,2D
,,,,,,,20,female,B,2020-05-25_14h17.27.164,Remembering_Displays,2020.1.2,MacIntel,60,9,1,1,1,0.713625,0,16,16,4,1,Stimuli/testStimuliSquare/6u_s_21_2D.png,Stimuli/testStimuliSquare/6u_s_21_2D.png,0,9,0.65621,,,,,,,,,c,2D
,,,,,,,20,female,B,2020-05-25_14h17.27.164,Remembering_Displays,2020.1.2,MacIntel,60,9,1,9,1,0.333915,0,17,17,12,1,Stimuli/testStimuliSquare/6u_s_19_s_2D.png,Stimuli/testStimuliSquare/6u_s_19_s_2D.png,0,9,0.73524,,,,,,,,,s,2D
,,,,,,,20,female,B,2020-05-25_14h17.27.164,Remembering_Displays,2020.1.2,MacIntel,60,9,1,9,1,0.470365,0,18,18,6,1,Stimuli/testStimuliSquare/6u_s_22_2D.png,Stimuli/testStimuliSquare/6u_s_22_2D.png,0,9,0.4389,,,,,,,,,c,2D
,,,,,,,20,female,B,2020-05-25_14h17.27.164,Remembering_Displays,2020.1.2,MacIntel,60,1,1,1,1,0.51692,0,19,19,7,1,Stimuli/testStimuliSquare/6u_s_22_2D.png,Stimuli/testStimuliSquare/6u_d_22_2D.png,1,1,0.68467,,,,,,,,,c,2D
,,,,,,,20,female,B,2020-05-25_14h17.27.164,Remembering_Displays,2020.1.2,MacIntel,60,9,1,1,1,0.601625,0,20,20,8,1,Stimuli/testStimuliSquare/6u_s_23_2D.png,Stimuli/testStimuliSquare/6u_s_23_2D.png,0,9,0.62465,,,,,,,,,c,2D
,,,,,,,20,female,B,2020-05-25_14h17.27.164,Remembering_Displays,2020.1.2,MacIntel,60,1,0,1,0,1.25077,0,21,21,16,1,Stimuli/testStimuliSquare/6u_s_21_s_2D.png,Stimuli/testStimuliSquare/6u_s_21_s_2D.png,0,9,0.92027,,,,,,,,,s,2D
,,,,,,,20,female,B,2020-05-25_14h17.27.164,Remembering_Displays,2020.1.2,MacIntel,60,9,1,9,1,0.39968,0,22,22,20,1,Stimuli/testStimuliSquare/6u_s_23_s_2D.png,Stimuli/testStimuliSquare/6u_s_23_s_2D.png,0,9,0.62413,,,,,,,,,s,2D
,,,,,,,20,female,B,2020-05-25_14h17.27.164,Remembering_Displays,2020.1.2,MacIntel,60,1,1,1,1,0.46386,0,23,23,3,1,Stimuli/testStimuliSquare/6u_s_20_2D.png,Stimuli/testStimuliSquare/6u_d_20_2D.png,1,1,0.45438,,,,,,,,,c,2D
,,,,,,,20,female,B,2020-05-25_14h17.27.164,Remembering_Displays,2020.1.2,MacIntel,60,,,,,,,,,,,,,,,,0,3,3,3,1,Stimuli/trialListSquares4.xlsx,Instructions/instr_18.png,Progress: 48 of 192 trials completed,,
,,,,,,,20,female,B,2020-05-25_14h17.27.164,Remembering_Displays,2020.1.2,MacIntel,60,1,1,1,1,0.622655,0,0,0,21,1,Stimuli/testStimuliCube/6u_s_11_s.png,Stimuli/testStimuliCube/6u_d_11_s.png,1,1,0.593315,,,,,,,,,s,3D
,,,,,,,20,female,B,2020-05-25_14h17.27.164,Remembering_Displays,2020.1.2,MacIntel,60,9,1,9,1,0.58143,0,1,1,12,1,Stimuli/testStimuliCube/6u_s_7_s.png,Stimuli/testStimuliCube/6u_s_7_s.png,0,9,0.721815,,,,,,,,,s,3D
,,,,,,,20,female,B,2020-05-25_14h17.27.164,Remembering_Displays,2020.1.2,MacIntel,60,9,0,1,1,0.469585,0,2,2,7,1,Stimuli/testStimuliCube/6u_s_10.png,Stimuli/testStimuliCube/6u_d_10.png,1,1,0.704775,,,,,,,,,c,3D
,,,,,,,20,female,B,2020-05-25_14h17.27.164,Remembering_Displays,2020.1.2,MacIntel,60,9,1,1,0,0.21781,0,3,3,4,1,Stimuli/testStimuliCube/6u_s_9.png,Stimuli/testStimuliCube/6u_s_9.png,0,9,0.549675,,,,,,,,,c,3D
,,,,,,,20,female,B,2020-05-25_14h17.27.164,Remembering_Displays,2020.1.2,MacIntel,60,9,0,9,1,0.501335,0,4,4,17,1,Stimuli/testStimuliCube/6u_s_9_s.png,Stimuli/testStimuliCube/6u_d_9_s.png,1,1,0.53438,,,,,,,,,s,3D
,,,,,,,20,female,B,2020-05-25_14h17.27.164,Remembering_Displays,2020.1.2,MacIntel,60,1,1,1,1,0.468815,0,5,5,13,1,Stimuli/testStimuliCube/6u_s_7_s.png,Stimuli/testStimuliCube/6u_d_7_s.png,1,1,0.53073,,,,,,,,,s,3D
,,,,,,,20,female,B,2020-05-25_14h17.27.164,Remembering_Displays,2020.1.2,MacIntel,60,9,0,9,1,0.454825,0,6,6,23,1,Stimuli/testStimuliCube/6u_s_12_s.png,Stimuli/testStimuliCube/6u_d_12_s.png,1,1,0.442565,,,,,,,,,s,3D
,,,,,,,20,female,B,2020-05-25_14h17.27.164,Remembering_Displays,2020.1.2,MacIntel,60,9,1,9,1,0.283185,0,7,7,18,1,Stimuli/testStimuliCube/6u_s_10_s.png,Stimuli/testStimuliCube/6u_s_10_s.png,0,9,0.418085,,,,,,,,,s,3D
,,,,,,,20,female,B,2020-05-25_14h17.27.164,Remembering_Displays,2020.1.2,MacIntel,60,9,1,1,1,0.413845,0,8,8,22,1,Stimuli/testStimuliCube/6u_s_12_s.png,Stimuli/testStimuliCube/6u_s_12_s.png,0,9,0.388055,,,,,,,,,s,3D
,,,,,,,20,female,B,2020-05-25_14h17.27.164,Remembering_Displays,2020.1.2,MacIntel,60,9,1,9,1,0.317365,0,9,9,8,1,Stimuli/testStimuliCube/6u_s_11.png,Stimuli/testStimuliCube/6u_s_11.png,0,9,0.432915,,,,,,,,,c,3D
,,,,,,,20,female,B,2020-05-25_14h17.27.164,Remembering_Displays,2020.1.2,MacIntel,60,1,1,1,1,0.68454,0,10,10,3,1,Stimuli/testStimuliCube/6u_s_8.png,Stimuli/testStimuliCube/6u_d_8.png,1,1,0.69026,,,,,,,,,c,3D
,,,,,,,20,female,B,2020-05-25_14h17.27.164,Remembering_Displays,2020.1.2,MacIntel,60,9,1,1,1,0.301045,0,11,11,14,1,Stimuli/testStimuliCube/6u_s_8_s.png,Stimuli/testStimuliCube/6u_s_8_s.png,0,9,0.42091,,,,,,,,,s,3D
,,,,,,,20,female,B,2020-05-25_14h17.27.164,Remembering_Displays,2020.1.2,MacIntel,60,9,0,9,1,0.65506,0,12,12,15,1,Stimuli/testStimuliCube/6u_s_8_s.png,Stimuli/testStimuliCube/6u_d_8_s.png,1,1,0.64266,,,,,,,,,s,3D
,,,,,,,20,female,B,2020-05-25_14h17.27.164,Remembering_Displays,2020.1.2,MacIntel,60,9,0,9,1,0.437355,0,13,13,11,1,Stimuli/testStimuliCube/6u_s_12.png,Stimuli/testStimuliCube/6u_d_12.png,1,1,0.37625,,,,,,,,,c,3D
,,,,,,,20,female,B,2020-05-25_14h17.27.164,Remembering_Displays,2020.1.2,MacIntel,60,9,1,1,1,0.252385,0,14,14,6,1,Stimuli/testStimuliCube/6u_s_10.png,Stimuli/testStimuliCube/6u_s_10.png,0,9,0.61806,,,,,,,,,c,3D
,,,,,,,20,female,B,2020-05-25_14h17.27.164,Remembering_Displays,2020.1.2,MacIntel,60,9,1,1,1,0.34743,0,15,15,16,1,Stimuli/testStimuliCube/6u_s_9_s.png,Stimuli/testStimuliCube/6u_s_9_s.png,0,9,0.67485,,,,,,,,,s,3D
,,,,,,,20,female,B,2020-05-25_14h17.27.164,Remembering_Displays,2020.1.2,MacIntel,60,9,0,9,1,0.604985,0,16,16,9,1,Stimuli/testStimuliCube/6u_s_11.png,Stimuli/testStimuliCube/6u_d_11.png,1,1,0.388425,,,,,,,,,c,3D
,,,,,,,20,female,B,2020-05-25_14h17.27.164,Remembering_Displays,2020.1.2,MacIntel,60,9,1,9,1,0.36417,0,17,17,2,1,Stimuli/testStimuliCube/6u_s_8.png,Stimuli/testStimuliCube/6u_s_8.png,0,9,0.606525,,,,,,,,,c,3D
,,,,,,,20,female,B,2020-05-25_14h17.27.164,Remembering_Displays,2020.1.2,MacIntel,60,9,0,1,1,0.634625,0,18,18,5,1,Stimuli/testStimuliCube/6u_s_9.png,Stimuli/testStimuliCube/6u_d_9.png,1,1,0.366055,,,,,,,,,c,3D
,,,,,,,20,female,B,2020-05-25_14h17.27.164,Remembering_Displays,2020.1.2,MacIntel,60,9,1,1,1,0.53445,0,19,19,20,1,Stimuli/testStimuliCube/6u_s_11_s.png,Stimuli/testStimuliCube/6u_s_11_s.png,0,9,0.720735,,,,,,,,,s,3D
,,,,,,,20,female,B,2020-05-25_14h17.27.164,Remembering_Displays,2020.1.2,MacIntel,60,1,1,9,1,0.34976,0,20,20,1,1,Stimuli/testStimuliCube/6u_s_7.png,Stimuli/testStimuliCube/6u_d_7.png,1,1,0.64846,,,,,,,,,c,3D
,,,,,,,20,female,B,2020-05-25_14h17.27.164,Remembering_Displays,2020.1.2,MacIntel,60,9,1,1,1,0.269845,0,21,21,0,1,Stimuli/testStimuliCube/6u_s_7.png,Stimuli/testStimuliCube/6u_s_7.png,0,9,0.72329,,,,,,,,,c,3D
,,,,,,,20,female,B,2020-05-25_14h17.27.164,Remembering_Displays,2020.1.2,MacIntel,60,1,1,9,1,0.448095,0,22,22,19,1,Stimuli/testStimuliCube/6u_s_10_s.png,Stimuli/testStimuliCube/6u_d_10_s.png,1,1,0.664135,,,,,,,,,s,3D
,,,,,,,20,female,B,2020-05-25_14h17.27.164,Remembering_Displays,2020.1.2,MacIntel,60,9,1,1,1,0.919505,0,23,23,10,1,Stimuli/testStimuliCube/6u_s_12.png,Stimuli/testStimuliCube/6u_s_12.png,0,9,0.467575,,,,,,,,,c,3D
,,,,,,,20,female,B,2020-05-25_14h17.27.164,Remembering_Displays,2020.1.2,MacIntel,60,,,,,,,,,,,,,,,,0,4,4,4,1,Stimuli/trialListCubes2.xlsx,Instructions/instr_19.png,Progress: 72 of 192 trials completed,,
,,,,,,,20,female,B,2020-05-25_14h17.27.164,Remembering_Displays,2020.1.2,MacIntel,60,1,1,1,1,0.354255,0,0,0,9,1,Stimuli/testStimuliSquare/6u_s_17_2D.png,Stimuli/testStimuliSquare/6u_d_17_2D.png,1,1,0.75578,,,,,,,,,c,2D
,,,,,,,20,female,B,2020-05-25_14h17.27.164,Remembering_Displays,2020.1.2,MacIntel,60,9,1,1,1,0.322015,0,1,1,10,1,Stimuli/testStimuliSquare/6u_s_18_2D.png,Stimuli/testStimuliSquare/6u_s_18_2D.png,0,9,0.536895,,,,,,,,,c,2D
,,,,,,,20,female,B,2020-05-25_14h17.27.164,Remembering_Displays,2020.1.2,MacIntel,60,9,1,9,1,0.43403,0,2,2,6,1,Stimuli/testStimuliSquare/6u_s_16_2D.png,Stimuli/testStimuliSquare/6u_s_16_2D.png,0,9,0.622525,,,,,,,,,c,2D
,,,,,,,20,female,B,2020-05-25_14h17.27.164,Remembering_Displays,2020.1.2,MacIntel,60,9,1,9,1,0.34731,0,3,3,2,1,Stimuli/testStimuliSquare/6u_s_14_2D.png,Stimuli/testStimuliSquare/6u_s_14_2D.png,0,9,0.372155,,,,,,,,,c,2D
,,,,,,,20,female,B,2020-05-25_14h17.27.164,Remembering_Displays,2020.1.2,MacIntel,60,9,1,9,1,7.984145,0,4,4,22,1,Stimuli/testStimuliSquare/6u_s_18_s_2D.png,Stimuli/testStimuliSquare/6u_s_18_s_2D.png,0,9,0.502615,,,,,,,,,s,2D
,,,,,,,20,female,B,2020-05-25_14h17.27.164,Remembering_Displays,2020.1.2,MacIntel,60,9,1,9,1,0.39995,0,5,5,18,1,Stimuli/testStimuliSquare/6u_s_16_s_2D.png,Stimuli/testStimuliSquare/6u_s_16_s_2D.png,0,9,0.444305,,,,,,,,,s,2D
,,,,,,,20,female,B,2020-05-25_14h17.27.164,Remembering_Displays,2020.1.2,MacIntel,60,9,1,1,1,0.3006,0,6,6,16,1,Stimuli/testStimuliSquare/6u_s_15_s_2D.png,Stimuli/testStimuliSquare/6u_s_15_s_2D.png,0,9,0.365505,,,,,,,,,s,2D
,,,,,,,20,female,B,2020-05-25_14h17.27.164,Remembering_Displays,2020.1.2,MacIntel,60,9,1,1,1,0.367545,0,7,7,14,1,Stimuli/testStimuliSquare/6u_s_14_s_2D.png,Stimuli/testStimuliSquare/6u_s_14_s_2D.png,0,9,0.50312,,,,,,,,,s,2D
,,,,,,,20,female,B,2020-05-25_14h17.27.164,Remembering_Displays,2020.1.2,MacIntel,60,1,1,1,1,0.436105,0,8,8,13,1,Stimuli/testStimuliSquare/6u_s_13_s_2D.png,Stimuli/testStimuliSquare/6u_d_13_s_2D.png,1,1,0.514035,,,,,,,,,s,2D
,,,,,,,20,female,B,2020-05-25_14h17.27.164,Remembering_Displays,2020.1.2,MacIntel,60,9,0,9,1,1.03815,0,9,9,19,1,Stimuli/testStimuliSquare/6u_s_16_s_2D.png,Stimuli/testStimuliSquare/6u_d_16_s_2D.png,1,1,0.496105,,,,,,,,,s,2D
,,,,,,,20,female,B,2020-05-25_14h17.27.164,Remembering_Displays,2020.1.2,MacIntel,60,9,1,9,0,0.53476,0,10,10,0,1,Stimuli/testStimuliSquare/6u_s_13_2D.png,Stimuli/testStimuliSquare/6u_s_13_2D.png,0,9,0.50931,,,,,,,,,c,2D
,,,,,,,20,female,B,2020-05-25_14h17.27.164,Remembering_Displays,2020.1.2,MacIntel,60,9,1,1,1,0.48453,0,11,11,4,1,Stimuli/testStimuliSquare/6u_s_15_2D.png,Stimuli/testStimuliSquare/6u_s_15_2D.png,0,9,0.45592,,,,,,,,,c,2D
,,,,,,,20,female,B,2020-05-25_14h17.27.164,Remembering_Displays,2020.1.2,MacIntel,60,1,1,1,1,0.584125,0,12,12,21,1,Stimuli/testStimuliSquare/6u_s_17_s_2D.png,Stimuli/testStimuliSquare/6u_d_17_s_2D.png,1,1,0.56594,,,,,,,,,s,2D
,,,,,,,20,female,B,2020-05-25_14h17.27.164,Remembering_Displays,2020.1.2,MacIntel,60,1,1,9,1,0.43585,0,13,13,23,1,Stimuli/testStimuliSquare/6u_s_18_s_2D.png,Stimuli/testStimuliSquare/6u_d_18_s_2D.png,1,1,0.55998,,,,,,,,,s,2D
,,,,,,,20,female,B,2020-05-25_14h17.27.164,Remembering_Displays,2020.1.2,MacIntel,60,9,1,9,1,0.3519,0,14,14,8,1,Stimuli/testStimuliSquare/6u_s_17_2D.png,Stimuli/testStimuliSquare/6u_s_17_2D.png,0,9,0.49013,,,,,,,,,c,2D
,,,,,,,20,female,B,2020-05-25_14h17.27.164,Remembering_Displays,2020.1.2,MacIntel,60,9,0,9,1,0.70259,0,15,15,15,1,Stimuli/testStimuliSquare/6u_s_14_s_2D.png,Stimuli/testStimuliSquare/6u_d_14_s_2D.png,1,1,0.489135,,,,,,,,,s,2D
,,,,,,,20,female,B,2020-05-25_14h17.27.164,Remembering_Displays,2020.1.2,MacIntel,60,9,0,1,1,0.585745,0,16,16,11,1,Stimuli/testStimuliSquare/6u_s_18_2D.png,Stimuli/testStimuliSquare/6u_d_18_2D.png,1,1,0.51902,,,,,,,,,c,2D
,,,,,,,20,female,B,2020-05-25_14h17.27.164,Remembering_Displays,2020.1.2,MacIntel,60,1,1,9,1,0.37166,0,17,17,5,1,Stimuli/testStimuliSquare/6u_s_15_2D.png,Stimuli/testStimuliSquare/6u_d_15_2D.png,1,1,0.489165,,,,,,,,,c,2D
,,,,,,,20,female,B,2020-05-25_14h17.27.164,Remembering_Displays,2020.1.2,MacIntel,60,9,1,1,1,0.31761,0,18,18,20,1,Stimuli/testStimuliSquare/6u_s_17_s_2D.png,Stimuli/testStimuliSquare/6u_s_17_s_2D.png,0,9,0.55207,,,,,,,,,s,2D
,,,,,,,20,female,B,2020-05-25_14h17.27.164,Remembering_Displays,2020.1.2,MacIntel,60,1,1,1,1,0.4013,0,19,19,3,1,Stimuli/testStimuliSquare/6u_s_14_2D.png,Stimuli/testStimuliSquare/6u_d_14_2D.png,1,1,0.40674,,,,,,,,,c,2D
,,,,,,,20,female,B,2020-05-25_14h17.27.164,Remembering_Displays,2020.1.2,MacIntel,60,9,0,1,0,0.23362,0,20,20,7,1,Stimuli/testStimuliSquare/6u_s_16_2D.png,Stimuli/testStimuliSquare/6u_d_16_2D.png,1,1,0.53302,,,,,,,,,c,2D
,,,,,,,20,female,B,2020-05-25_14h17.27.164,Remembering_Displays,2020.1.2,MacIntel,60,1,1,9,1,0.33672,0,21,21,1,1,Stimuli/testStimuliSquare/6u_s_13_2D.png,Stimuli/testStimuliSquare/6u_d_13_2D.png,1,1,0.528655,,,,,,,,,c,2D
,,,,,,,20,female,B,2020-05-25_14h17.27.164,Remembering_Displays,2020.1.2,MacIntel,60,1,1,1,1,0.434195,0,22,22,17,1,Stimuli/testStimuliSquare/6u_s_15_s_2D.png,Stimuli/testStimuliSquare/6u_d_15_s_2D.png,1,1,0.56445,,,,,,,,,s,2D
,,,,,,,20,female,B,2020-05-25_14h17.27.164,Remembering_Displays,2020.1.2,MacIntel,60,9,1,9,1,0.36541,0,23,23,12,1,Stimuli/testStimuliSquare/6u_s_13_s_2D.png,Stimuli/testStimuliSquare/6u_s_13_s_2D.png,0,9,0.5596,,,,,,,,,s,2D
,,,,,,,20,female,B,2020-05-25_14h17.27.164,Remembering_Displays,2020.1.2,MacIntel,60,,,,,,,,,,,,,,,,0,5,5,5,1,Stimuli/trialListSquares3.xlsx,Instructions/instr_18.png,Progress: 96 of 192 trials completed,,
,,,,,,,20,female,B,2020-05-25_14h17.27.164,Remembering_Displays,2020.1.2,MacIntel,60,9,1,9,1,0.550135,0,0,0,8,1,Stimuli/testStimuliCube/6u_s_17.png,Stimuli/testStimuliCube/6u_s_17.png,0,9,0.43655,,,,,,,,,c,3D
,,,,,,,20,female,B,2020-05-25_14h17.27.164,Remembering_Displays,2020.1.2,MacIntel,60,1,1,1,1,0.538805,0,1,1,15,1,Stimuli/testStimuliCube/6u_s_14_s.png,Stimuli/testStimuliCube/6u_d_14_s.png,1,1,0.582915,,,,,,,,,s,3D
,,,,,,,20,female,B,2020-05-25_14h17.27.164,Remembering_Displays,2020.1.2,MacIntel,60,1,1,1,1,0.80111,0,2,2,3,1,Stimuli/testStimuliCube/6u_s_14.png,Stimuli/testStimuliCube/6u_d_14.png,1,1,0.47888,,,,,,,,,c,3D
,,,,,,,20,female,B,2020-05-25_14h17.27.164,Remembering_Displays,2020.1.2,MacIntel,60,1,1,1,1,0.74871,0,3,3,13,1,Stimuli/testStimuliCube/6u_s_13_s.png,Stimuli/testStimuliCube/6u_d_13_s.png,1,1,0.499425,,,,,,,,,s,3D
,,,,,,,20,female,B,2020-05-25_14h17.27.164,Remembering_Displays,2020.1.2,MacIntel,60,1,0,1,1,0.450835,0,4,4,4,1,Stimuli/testStimuliCube/6u_s_15.png,Stimuli/testStimuliCube/6u_s_15.png,0,9,0.47049,,,,,,,,,c,3D
,,,,,,,20,female,B,2020-05-25_14h17.27.164,Remembering_Displays,2020.1.2,MacIntel,60,1,1,9,1,0.366545,0,5,5,19,1,Stimuli/testStimuliCube/6u_s_16_s.png,Stimuli/testStimuliCube/6u_d_16_s.png,1,1,0.678005,,,,,,,,,s,3D
,,,,,,,20,female,B,2020-05-25_14h17.27.164,Remembering_Displays,2020.1.2,MacIntel,60,9,1,1,1,0.351185,0,6,6,16,1,Stimuli/testStimuliCube/6u_s_15_s.png,Stimuli/testStimuliCube/6u_s_15_s.png,0,9,0.39992,,,,,,,,,s,3D
,,,,,,,20,female,B,2020-05-25_14h17.27.164,Remembering_Displays,2020.1.2,MacIntel,60,9,0,1,1,0.480315,0,7,7,23,1,Stimuli/testStimuliCube/6u_s_18_s.png,Stimuli/testStimuliCube/6u_d_18_s.png,1,1,0.678245,,,,,,,,,s,3D
,,,,,,,20,female,B,2020-05-25_14h17.27.164,Remembering_Displays,2020.1.2,MacIntel,60,9,1,1,1,0.846675,0,8,8,22,1,Stimuli/testStimuliCube/6u_s_18_s.png,Stimuli/testStimuliCube/6u_s_18_s.png,0,9,0.58784,,,,,,,,,s,3D
,,,,,,,20,female,B,2020-05-25_14h17.27.164,Remembering_Displays,2020.1.2,MacIntel,60,9,0,1,1,0.68447,0,9,9,21,1,Stimuli/testStimuliCube/6u_s_17_s.png,Stimuli/testStimuliCube/6u_d_17_s.png,1,1,0.530625,,,,,,,,,s,3D
,,,,,,,20,female,B,2020-05-25_14h17.27.164,Remembering_Displays,2020.1.2,MacIntel,60,1,1,1,1,7.146615,0,10,10,7,1,Stimuli/testStimuliCube/6u_s_16.png,Stimuli/testStimuliCube/6u_d_16.png,1,1,0.674795,,,,,,,,,c,3D
,,,,,,,20,female,B,2020-05-25_14h17.27.164,Remembering_Displays,2020.1.2,MacIntel,60,1,1,9,0,0.305285,0,11,11,1,1,Stimuli/testStimuliCube/6u_s_13.png,Stimuli/testStimuliCube/6u_d_13.png,1,1,0.41033,,,,,,,,,c,3D
,,,,,,,20,female,B,2020-05-25_14h17.27.164,Remembering_Displays,2020.1.2,MacIntel,60,1,0,9,0,1.183285,0,12,12,2,1,Stimuli/testStimuliCube/6u_s_14.png,Stimuli/testStimuliCube/6u_s_14.png,0,9,0.523415,,,,,,,,,c,3D
,,,,,,,20,female,B,2020-05-25_14h17.27.164,Remembering_Displays,2020.1.2,MacIntel,60,9,1,1,1,0.30375,0,13,13,20,1,Stimuli/testStimuliCube/6u_s_17_s.png,Stimuli/testStimuliCube/6u_s_17_s.png,0,9,0.71194,,,,,,,,,s,3D
,,,,,,,20,female,B,2020-05-25_14h17.27.164,Remembering_Displays,2020.1.2,MacIntel,60,9,1,9,1,0.335455,0,14,14,0,1,Stimuli/testStimuliCube/6u_s_13.png,Stimuli/testStimuliCube/6u_s_13.png,0,9,0.586745,,,,,,,,,c,3D
,,,,,,,20,female,B,2020-05-25_14h17.27.164,Remembering_Displays,2020.1.2,MacIntel,60,1,1,9,1,0.45029,0,15,15,9,1,Stimuli/testStimuliCube/6u_s_17.png,Stimuli/testStimuliCube/6u_d_17.png,1,1,0.5944,,,,,,,,,c,3D
,,,,,,,20,female,B,2020-05-25_14h17.27.164,Remembering_Displays,2020.1.2,MacIntel,60,9,0,1,1,0.41729,0,16,16,11,1,Stimuli/testStimuliCube/6u_s_18.png,Stimuli/testStimuliCube/6u_d_18.png,1,1,0.52448,,,,,,,,,c,3D
,,,,,,,20,female,B,2020-05-25_14h17.27.164,Remembering_Displays,2020.1.2,MacIntel,60,1,1,9,1,0.56787,0,17,17,5,1,Stimuli/testStimuliCube/6u_s_15.png,Stimuli/testStimuliCube/6u_d_15.png,1,1,0.54286,,,,,,,,,c,3D
,,,,,,,20,female,B,2020-05-25_14h17.27.164,Remembering_Displays,2020.1.2,MacIntel,60,1,0,1,1,0.4341,0,18,18,12,1,Stimuli/testStimuliCube/6u_s_13_s.png,Stimuli/testStimuliCube/6u_s_13_s.png,0,9,0.774585,,,,,,,,,s,3D
,,,,,,,20,female,B,2020-05-25_14h17.27.164,Remembering_Displays,2020.1.2,MacIntel,60,9,1,1,1,0.297075,0,19,19,6,1,Stimuli/testStimuliCube/6u_s_16.png,Stimuli/testStimuliCube/6u_s_16.png,0,9,0.57202,,,,,,,,,c,3D
,,,,,,,20,female,B,2020-05-25_14h17.27.164,Remembering_Displays,2020.1.2,MacIntel,60,9,1,9,1,0.553425,0,20,20,18,1,Stimuli/testStimuliCube/6u_s_16_s.png,Stimuli/testStimuliCube/6u_s_16_s.png,0,9,0.370925,,,,,,,,,s,3D
,,,,,,,20,female,B,2020-05-25_14h17.27.164,Remembering_Displays,2020.1.2,MacIntel,60,9,1,1,1,0.33423,0,21,21,10,1,Stimuli/testStimuliCube/6u_s_18.png,Stimuli/testStimuliCube/6u_s_18.png,0,9,0.604995,,,,,,,,,c,3D
,,,,,,,20,female,B,2020-05-25_14h17.27.164,Remembering_Displays,2020.1.2,MacIntel,60,1,1,1,1,0.618895,0,22,22,17,1,Stimuli/testStimuliCube/6u_s_15_s.png,Stimuli/testStimuliCube/6u_d_15_s.png,1,1,0.574625,,,,,,,,,s,3D
,,,,,,,20,female,B,2020-05-25_14h17.27.164,Remembering_Displays,2020.1.2,MacIntel,60,1,0,9,1,0.34918,0,23,23,14,1,Stimuli/testStimuliCube/6u_s_14_s.png,Stimuli/testStimuliCube/6u_s_14_s.png,0,9,0.43725,,,,,,,,,s,3D
,,,,,,,20,female,B,2020-05-25_14h17.27.164,Remembering_Displays,2020.1.2,MacIntel,60,,,,,,,,,,,,,,,,0,6,6,6,1,Stimuli/trialListCubes3.xlsx,Instructions/instr_19.png,Progress: 120 of 192 trials completed,,
,,,,,,,20,female,B,2020-05-25_14h17.27.164,Remembering_Displays,2020.1.2,MacIntel,60,1,1,9,1,0.63345,0,0,0,1,1,Stimuli/testStimuliSquare/6u_s_7_2D.png,Stimuli/testStimuliSquare/6u_d_7_2D.png,1,1,0.70822,,,,,,,,,c,2D
,,,,,,,20,female,B,2020-05-25_14h17.27.164,Remembering_Displays,2020.1.2,MacIntel,60,9,1,1,1,0.202125,0,1,1,12,1,Stimuli/testStimuliSquare/6u_s_7_s_2D.png,Stimuli/testStimuliSquare/6u_s_7_s_2D.png,0,9,0.506615,,,,,,,,,s,2D
,,,,,,,20,female,B,2020-05-25_14h17.27.164,Remembering_Displays,2020.1.2,MacIntel,60,1,1,1,1,1.146985,0,2,2,17,1,Stimuli/testStimuliSquare/6u_s_9_s_2D.png,Stimuli/testStimuliSquare/6u_d_9_s_2D.png,1,1,0.747275,,,,,,,,,s,2D
,,,,,,,20,female,B,2020-05-25_14h17.27.164,Remembering_Displays,2020.1.2,MacIntel,60,1,0,9,1,0.199775,0,3,3,20,1,Stimuli/testStimuliSquare/6u_s_11_s_2D.png,Stimuli/testStimuliSquare/6u_s_11_s_2D.png,0,9,0.70584,,,,,,,,,s,2D
,,,,,,,20,female,B,2020-05-25_14h17.27.164,Remembering_Displays,2020.1.2,MacIntel,60,9,1,1,1,0.54977,0,4,4,4,1,Stimuli/testStimuliSquare/6u_s_9_2D.png,Stimuli/testStimuliSquare/6u_s_9_2D.png,0,9,0.44291,,,,,,,,,c,2D
,,,,,,,20,female,B,2020-05-25_14h17.27.164,Remembering_Displays,2020.1.2,MacIntel,60,9,0,1,1,0.815875,0,5,5,23,1,Stimuli/testStimuliSquare/6u_s_12_s_2D.png,Stimuli/testStimuliSquare/6u_d_12_s_2D.png,1,1,0.76012,,,,,,,,,s,2D
,,,,,,,20,female,B,2020-05-25_14h17.27.164,Remembering_Displays,2020.1.2,MacIntel,60,9,1,9,1,0.46682,0,6,6,2,1,Stimuli/testStimuliSquare/6u_s_8_2D.png,Stimuli/testStimuliSquare/6u_s_8_2D.png,0,9,0.48735,,,,,,,,,c,2D
,,,,,,,20,female,B,2020-05-25_14h17.27.164,Remembering_Displays,2020.1.2,MacIntel,60,9,0,9,1,0.3851,0,7,7,15,1,Stimuli/testStimuliSquare/6u_s_8_s_2D.png,Stimuli/testStimuliSquare/6u_d_8_s_2D.png,1,1,0.45665,,,,,,,,,s,2D
,,,,,,,20,female,B,2020-05-25_14h17.27.164,Remembering_Displays,2020.1.2,MacIntel,60,9,1,9,1,0.289245,0,8,8,0,1,Stimuli/testStimuliSquare/6u_s_7_2D.png,Stimuli/testStimuliSquare/6u_s_7_2D.png,0,9,0.39906,,,,,,,,,c,2D
,,,,,,,20,female,B,2020-05-25_14h17.27.164,Remembering_Displays,2020.1.2,MacIntel,60,9,0,9,1,0.687845,0,9,9,5,1,Stimuli/testStimuliSquare/6u_s_9_2D.png,Stimuli/testStimuliSquare/6u_d_9_2D.png,1,1,0.38663,,,,,,,,,c,2D
,,,,,,,20,female,B,2020-05-25_14h17.27.164,Remembering_Displays,2020.1.2,MacIntel,60,9,0,1,1,0.552245,0,10,10,9,1,Stimuli/testStimuliSquare/6u_s_11_2D.png,Stimuli/testStimuliSquare/6u_d_11_2D.png,1,1,0.37381,,,,,,,,,c,2D
,,,,,,,20,female,B,2020-05-25_14h17.27.164,Remembering_Displays,2020.1.2,MacIntel,60,1,1,1,1,0.36759,0,11,11,19,1,Stimuli/testStimuliSquare/6u_s_10_s_2D.png,Stimuli/testStimuliSquare/6u_d_10_s_2D.png,1,1,0.68036,,,,,,,,,s,2D
,,,,,,,20,female,B,2020-05-25_14h17.27.164,Remembering_Displays,2020.1.2,MacIntel,60,9,1,9,1,0.34905,0,12,12,10,1,Stimuli/testStimuliSquare/6u_s_12_2D.png,Stimuli/testStimuliSquare/6u_s_12_2D.png,0,9,0.50109,,,,,,,,,c,2D
,,,,,,,20,female,B,2020-05-25_14h17.27.164,Remembering_Displays,2020.1.2,MacIntel,60,9,1,9,1,0.423095,0,13,13,22,1,Stimuli/testStimuliSquare/6u_s_12_s_2D.png,Stimuli/testStimuliSquare/6u_s_12_s_2D.png,0,9,0.417215,,,,,,,,,s,2D
,,,,,,,20,female,B,2020-05-25_14h17.27.164,Remembering_Displays,2020.1.2,MacIntel,60,1,1,9,1,0.24978,0,14,14,11,1,Stimuli/testStimuliSquare/6u_s_12_2D.png,Stimuli/testStimuliSquare/6u_d_12_2D.png,1,1,0.73563,,,,,,,,,c,2D
,,,,,,,20,female,B,2020-05-25_14h17.27.164,Remembering_Displays,2020.1.2,MacIntel,60,1,1,1,1,0.28447,0,15,15,7,1,Stimuli/testStimuliSquare/6u_s_10_2D.png,Stimuli/testStimuliSquare/6u_d_10_2D.png,1,1,0.446885,,,,,,,,,c,2D
,,,,,,,20,female,B,2020-05-25_14h17.27.164,Remembering_Displays,2020.1.2,MacIntel,60,9,1,1,1,0.317535,0,16,16,6,1,Stimuli/testStimuliSquare/6u_s_10_2D.png,Stimuli/testStimuliSquare/6u_s_10_2D.png,0,9,0.47216,,,,,,,,,c,2D
,,,,,,,20,female,B,2020-05-25_14h17.27.164,Remembering_Displays,2020.1.2,MacIntel,60,9,1,1,1,1.051435,0,17,17,18,1,Stimuli/testStimuliSquare/6u_s_10_s_2D.png,Stimuli/testStimuliSquare/6u_s_10_s_2D.png,0,9,1.12275,,,,,,,,,s,2D
,,,,,,,20,female,B,2020-05-25_14h17.27.164,Remembering_Displays,2020.1.2,MacIntel,60,9,1,9,1,0.417195,0,18,18,14,1,Stimuli/testStimuliSquare/6u_s_8_s_2D.png,Stimuli/testStimuliSquare/6u_s_8_s_2D.png,0,9,0.38743,,,,,,,,,s,2D
,,,,,,,20,female,B,2020-05-25_14h17.27.164,Remembering_Displays,2020.1.2,MacIntel,60,9,0,9,1,0.454515,0,19,19,21,1,Stimuli/testStimuliSquare/6u_s_11_s_2D.png,Stimuli/testStimuliSquare/6u_d_11_s_2D.png,1,1,0.382695,,,,,,,,,s,2D
,,,,,,,20,female,B,2020-05-25_14h17.27.164,Remembering_Displays,2020.1.2,MacIntel,60,1,1,1,1,0.63102,0,20,20,3,1,Stimuli/testStimuliSquare/6u_s_8_2D.png,Stimuli/testStimuliSquare/6u_d_8_2D.png,1,1,0.607985,,,,,,,,,c,2D
,,,,,,,20,female,B,2020-05-25_14h17.27.164,Remembering_Displays,2020.1.2,MacIntel,60,1,0,9,1,0.38696,0,21,21,16,1,Stimuli/testStimuliSquare/6u_s_9_s_2D.png,Stimuli/testStimuliSquare/6u_s_9_s_2D.png,0,9,0.588315,,,,,,,,,s,2D
,,,,,,,20,female,B,2020-05-25_14h17.27.164,Remembering_Displays,2020.1.2,MacIntel,60,9,1,1,1,0.23384,0,22,22,8,1,Stimuli/testStimuliSquare/6u_s_11_2D.png,Stimuli/testStimuliSquare/6u_s_11_2D.png,0,9,0.40696,,,,,,,,,c,2D
,,,,,,,20,female,B,2020-05-25_14h17.27.164,Remembering_Displays,2020.1.2,MacIntel,60,1,1,9,0,0.486715,0,23,23,13,1,Stimuli/testStimuliSquare/6u_s_7_s_2D.png,Stimuli/testStimuliSquare/6u_d_7_s_2D.png,1,1,0.451735,,,,,,,,,s,2D
,,,,,,,20,female,B,2020-05-25_14h17.27.164,Remembering_Displays,2020.1.2,MacIntel,60,,,,,,,,,,,,,,,,0,7,7,7,1,Stimuli/trialListSquares2.xlsx,Instructions/instr_18.png,Progress: 144 of 192 trials completed,,
,,,,,,,20,female,B,2020-05-25_14h17.27.164,Remembering_Displays,2020.1.2,MacIntel,60,1,1,9,1,0.26395,0,0,0,1,1,Stimuli/testStimuliCube/6u_s_19.png,Stimuli/testStimuliCube/6u_d_19.png,1,1,0.592095,,,,,,,,,c,3D
,,,,,,,20,female,B,2020-05-25_14h17.27.164,Remembering_Displays,2020.1.2,MacIntel,60,1,1,9,1,0.28382,0,1,1,7,1,Stimuli/testStimuliCube/6u_s_22.png,Stimuli/testStimuliCube/6u_d_22.png,1,1,0.477425,,,,,,,,,c,3D
,,,,,,,20,female,B,2020-05-25_14h17.27.164,Remembering_Displays,2020.1.2,MacIntel,60,9,1,1,1,0.301165,0,2,2,22,1,Stimuli/testStimuliCube/6u_s_24_s.png,Stimuli/testStimuliCube/6u_s_24_s.png,0,9,0.542095,,,,,,,,,s,3D
,,,,,,,20,female,B,2020-05-25_14h17.27.164,Remembering_Displays,2020.1.2,MacIntel,60,1,0,9,1,0.350165,0,3,3,10,1,Stimuli/testStimuliCube/6u_s_24.png,Stimuli/testStimuliCube/6u_s_24.png,0,9,0.404285,,,,,,,,,c,3D
,,,,,,,20,female,B,2020-05-25_14h17.27.164,Remembering_Displays,2020.1.2,MacIntel,60,9,1,1,1,0.37119,0,4,4,0,1,Stimuli/testStimuliCube/6u_s_19.png,Stimuli/testStimuliCube/6u_s_19.png,0,9,0.537355,,,,,,,,,c,3D
,,,,,,,20,female,B,2020-05-25_14h17.27.164,Remembering_Displays,2020.1.2,MacIntel,60,9,1,1,1,0.250925,0,5,5,16,1,Stimuli/testStimuliCube/6u_s_21_s.png,Stimuli/testStimuliCube/6u_s_21_s.png,0,9,0.50477,,,,,,,,,s,3D
,,,,,,,20,female,B,2020-05-25_14h17.27.164,Remembering_Displays,2020.1.2,MacIntel,60,1,1,9,1,1.485665,0,6,6,17,1,Stimuli/testStimuliCube/6u_s_21_s.png,Stimuli/testStimuliCube/6u_d_21_s.png,1,1,0.545765,,,,,,,,,s,3D
,,,,,,,20,female,B,2020-05-25_14h17.27.164,Remembering_Displays,2020.1.2,MacIntel,60,9,0,9,1,0.483485,0,7,7,23,1,Stimuli/testStimuliCube/6u_s_24_s.png,Stimuli/testStimuliCube/6u_d_24_s.png,1,1,0.427575,,,,,,,,,s,3D
,,,,,,,20,female,B,2020-05-25_14h17.27.164,Remembering_Displays,2020.1.2,MacIntel,60,1,0,9,1,0.284215,0,8,8,18,1,Stimuli/testStimuliCube/6u_s_22_s.png,Stimuli/testStimuliCube/6u_s_22_s.png,0,9,0.536295,,,,,,,,,s,3D
,,,,,,,20,female,B,2020-05-25_14h17.27.164,Remembering_Displays,2020.1.2,MacIntel,60,9,0,1,1,0.318415,0,9,9,21,1,Stimuli/testStimuliCube/6u_s_23_s.png,Stimuli/testStimuliCube/6u_d_23_s.png,1,1,0.479015,,,,,,,,,s,3D
,,,,,,,20,female,B,2020-05-25_14h17.27.164,Remembering_Displays,2020.1.2,MacIntel,60,1,1,9,1,0.650135,0,10,10,15,1,Stimuli/testStimuliCube/6u_s_20_s.png,Stimuli/testStimuliCube/6u_d_20_s.png,1,1,0.41295,,,,,,,,,s,3D
,,,,,,,20,female,B,2020-05-25_14h17.27.164,Remembering_Displays,2020.1.2,MacIntel,60,1,1,1,1,0.341685,0,11,11,19,1,Stimuli/testStimuliCube/6u_s_22_s.png,Stimuli/testStimuliCube/6u_d_22_s.png,1,1,0.423495,,,,,,,,,s,3D
,,,,,,,20,female,B,2020-05-25_14h17.27.164,Remembering_Displays,2020.1.2,MacIntel,60,9,1,9,0,3.13437,0,12,12,2,1,Stimuli/testStimuliCube/6u_s_20.png,Stimuli/testStimuliCube/6u_s_20.png,0,9,0.44286,,,,,,,,,c,3D
,,,,,,,20,female,B,2020-05-25_14h17.27.164,Remembering_Displays,2020.1.2,MacIntel,60,9,0,9,1,0.68309,0,13,13,9,1,Stimuli/testStimuliCube/6u_s_23.png,Stimuli/testStimuliCube/6u_d_23.png,1,1,0.56109,,,,,,,,,c,3D
,,,,,,,20,female,B,2020-05-25_14h17.27.164,Remembering_Displays,2020.1.2,MacIntel,60,1,1,9,1,0.37074,0,14,14,13,1,Stimuli/testStimuliCube/6u_s_19_s.png,Stimuli/testStimuliCube/6u_d_19_s.png,1,1,0.47982,,,,,,,,,s,3D
,,,,,,,20,female,B,2020-05-25_14h17.27.164,Remembering_Displays,2020.1.2,MacIntel,60,9,1,1,1,0.40424,0,15,15,14,1,Stimuli/testStimuliCube/6u_s_20_s.png,Stimuli/testStimuliCube/6u_s_20_s.png,0,9,0.58905,,,,,,,,,s,3D
,,,,,,,20,female,B,2020-05-25_14h17.27.164,Remembering_Displays,2020.1.2,MacIntel,60,9,1,1,1,0.284175,0,16,16,20,1,Stimuli/testStimuliCube/6u_s_23_s.png,Stimuli/testStimuliCube/6u_s_23_s.png,0,9,0.41745,,,,,,,,,s,3D
,,,,,,,20,female,B,2020-05-25_14h17.27.164,Remembering_Displays,2020.1.2,MacIntel,60,1,1,9,1,0.33025,0,17,17,3,1,Stimuli/testStimuliCube/6u_s_20.png,Stimuli/testStimuliCube/6u_d_20.png,1,1,0.496045,,,,,,,,,c,3D
,,,,,,,20,female,B,2020-05-25_14h17.27.164,Remembering_Displays,2020.1.2,MacIntel,60,9,1,1,1,0.304495,0,18,18,8,1,Stimuli/testStimuliCube/6u_s_23.png,Stimuli/testStimuliCube/6u_s_23.png,0,9,0.584805,,,,,,,,,c,3D
,,,,,,,20,female,B,2020-05-25_14h17.27.164,Remembering_Displays,2020.1.2,MacIntel,60,1,0,9,1,0.251685,0,19,19,12,1,Stimuli/testStimuliCube/6u_s_19_s.png,Stimuli/testStimuliCube/6u_s_19_s.png,0,9,0.68551,,,,,,,,,s,3D
,,,,,,,20,female,B,2020-05-25_14h17.27.164,Remembering_Displays,2020.1.2,MacIntel,60,1,1,1,1,1.15343,0,20,20,5,1,Stimuli/testStimuliCube/6u_s_21.png,Stimuli/testStimuliCube/6u_d_21.png,1,1,0.611195,,,,,,,,,c,3D
,,,,,,,20,female,B,2020-05-25_14h17.27.164,Remembering_Displays,2020.1.2,MacIntel,60,9,1,1,1,0.71366,0,21,21,4,1,Stimuli/testStimuliCube/6u_s_21.png,Stimuli/testStimuliCube/6u_s_21.png,0,9,0.56439,,,,,,,,,c,3D
,,,,,,,20,female,B,2020-05-25_14h17.27.164,Remembering_Displays,2020.1.2,MacIntel,60,9,0,1,1,0.48027,0,22,22,11,1,Stimuli/testStimuliCube/6u_s_24.png,Stimuli/testStimuliCube/6u_d_24.png,1,1,0.592115,,,,,,,,,c,3D
,,,,,,,20,female,B,2020-05-25_14h17.27.164,Remembering_Displays,2020.1.2,MacIntel,60,9,1,9,1,0.784055,0,23,23,6,1,Stimuli/testStimuliCube/6u_s_22.png,Stimuli/testStimuliCube/6u_s_22.png,0,9,0.548645,,,,,,,,,c,3D
,,,,,,,20,female,B,2020-05-25_14h17.27.164,Remembering_Displays,2020.1.2,MacIntel,60,,,,,,,,,,,,,,,,0,8,8,8,1,Stimuli/trialListCubes4.xlsx,Instructions/instr_19.png,Progress: 168 of 192 trials completed,,
,,,,,,,20,female,B,2020-05-25_14h17.27.164,Remembering_Displays,2020.1.2,MacIntel,60,1,0,1,1,0.73436,0,0,0,14,1,Stimuli/testStimuliSquare/6u_s_2_s_2D.png,Stimuli/testStimuliSquare/6u_s_2_s_2D.png,0,9,0.67085,,,,,,,,,s,2D
,,,,,,,20,female,B,2020-05-25_14h17.27.164,Remembering_Displays,2020.1.2,MacIntel,60,1,1,9,1,0.405245,0,1,1,1,1,Stimuli/testStimuliSquare/6u_s_1_2D.png,Stimuli/testStimuliSquare/6u_d_1_2D.png,1,1,0.485725,,,,,,,,,c,2D
,,,,,,,20,female,B,2020-05-25_14h17.27.164,Remembering_Displays,2020.1.2,MacIntel,60,1,1,9,1,1.06541,0,2,2,7,1,Stimuli/testStimuliSquare/6u_s_4_2D.png,Stimuli/testStimuliSquare/6u_d_4_2D.png,1,1,0.523265,,,,,,,,,c,2D
,,,,,,,20,female,B,2020-05-25_14h17.27.164,Remembering_Displays,2020.1.2,MacIntel,60,1,1,1,1,0.94153,0,3,3,3,1,Stimuli/testStimuliSquare/6u_s_2_2D.png,Stimuli/testStimuliSquare/6u_d_2_2D.png,1,1,0.668465,,,,,,,,,c,2D
,,,,,,,20,female,B,2020-05-25_14h17.27.164,Remembering_Displays,2020.1.2,MacIntel,60,1,1,9,1,0.689465,0,4,4,5,1,Stimuli/testStimuliSquare/6u_s_3_2D.png,Stimuli/testStimuliSquare/6u_d_3_2D.png,1,1,0.506635,,,,,,,,,c,2D
,,,,,,,20,female,B,2020-05-25_14h17.27.164,Remembering_Displays,2020.1.2,MacIntel,60,1,0,1,1,0.447215,0,5,5,16,1,Stimuli/testStimuliSquare/6u_s_3_s_2D.png,Stimuli/testStimuliSquare/6u_s_3_s_2D.png,0,9,0.48331,,,,,,,,,s,2D
,,,,,,,20,female,B,2020-05-25_14h17.27.164,Remembering_Displays,2020.1.2,MacIntel,60,9,1,1,1,0.584475,0,6,6,8,1,Stimuli/testStimuliSquare/6u_s_5_2D.png,Stimuli/testStimuliSquare/6u_s_5_2D.png,0,9,0.433705,,,,,,,,,c,2D
,,,,,,,20,female,B,2020-05-25_14h17.27.164,Remembering_Displays,2020.1.2,MacIntel,60,1,1,9,1,0.33407,0,7,7,15,1,Stimuli/testStimuliSquare/6u_s_2_s_2D.png,Stimuli/testStimuliSquare/6u_d_2_s_2D.png,1,1,0.47621,,,,,,,,,s,2D
,,,,,,,20,female,B,2020-05-25_14h17.27.164,Remembering_Displays,2020.1.2,MacIntel,60,9,1,9,1,0.36903,0,8,8,4,1,Stimuli/testStimuliSquare/6u_s_3_2D.png,Stimuli/testStimuliSquare/6u_s_3_2D.png,0,9,0.4351,,,,,,,,,c,2D
,,,,,,,20,female,B,2020-05-25_14h17.27.164,Remembering_Displays,2020.1.2,MacIntel,60,9,0,1,0,0.246725,0,9,9,17,1,Stimuli/testStimuliSquare/6u_s_3_s_2D.png,Stimuli/testStimuliSquare/6u_d_3_s_2D.png,1,1,0.497925,,,,,,,,,s,2D
,,,,,,,20,female,B,2020-05-25_14h17.27.164,Remembering_Displays,2020.1.2,MacIntel,60,9,1,9,1,0.238075,0,10,10,18,1,Stimuli/testStimuliSquare/6u_s_4_s_2D.png,Stimuli/testStimuliSquare/6u_s_4_s_2D.png,0,9,0.388535,,,,,,,,,s,2D
,,,,,,,20,female,B,2020-05-25_14h17.27.164,Remembering_Displays,2020.1.2,MacIntel,60,9,0,1,0,0.28318,0,11,11,9,1,Stimuli/testStimuliSquare/6u_s_5_2D.png,Stimuli/testStimuliSquare/6u_d_5_2D.png,1,1,0.38254,,,,,,,,,c,2D
,,,,,,,20,female,B,2020-05-25_14h17.27.164,Remembering_Displays,2020.1.2,MacIntel,60,9,0,1,1,1.084285,0,12,12,23,1,Stimuli/testStimuliSquare/6u_s_6_s_2D.png,Stimuli/testStimuliSquare/6u_d_6_s_2D.png,1,1,0.50865,,,,,,,,,s,2D
,,,,,,,20,female,B,2020-05-25_14h17.27.164,Remembering_Displays,2020.1.2,MacIntel,60,9,1,1,1,0.4962,0,13,13,10,1,Stimuli/testStimuliSquare/6u_s_6_2D.png,Stimuli/testStimuliSquare/6u_s_6_2D.png,0,9,0.486345,,,,,,,,,c,2D
,,,,,,,20,female,B,2020-05-25_14h17.27.164,Remembering_Displays,2020.1.2,MacIntel,60,9,0,1,0,0.23018,0,14,14,21,1,Stimuli/testStimuliSquare/6u_s_5_s_2D.png,Stimuli/testStimuliSquare/6u_d_5_s_2D.png,1,1,0.409145,,,,,,,,,s,2D
,,,,,,,20,female,B,2020-05-25_14h17.27.164,Remembering_Displays,2020.1.2,MacIntel,60,9,1,9,1,0.37116,0,15,15,12,1,Stimuli/testStimuliSquare/6u_s_1_s_2D.png,Stimuli/testStimuliSquare/6u_s_1_s_2D.png,0,9,0.43504,,,,,,,,,s,2D
,,,,,,,20,female,B,2020-05-25_14h17.27.164,Remembering_Displays,2020.1.2,MacIntel,60,1,1,9,1,0.217625,0,16,16,19,1,Stimuli/testStimuliSquare/6u_s_4_s_2D.png,Stimuli/testStimuliSquare/6u_d_4_s_2D.png,1,1,0.776815,,,,,,,,,s,2D
,,,,,,,20,female,B,2020-05-25_14h17.27.164,Remembering_Displays,2020.1.2,MacIntel,60,9,1,9,1,0.28375,0,17,17,22,1,Stimuli/testStimuliSquare/6u_s_6_s_2D.png,Stimuli/testStimuliSquare/6u_s_6_s_2D.png,0,9,0.46897,,,,,,,,,s,2D
,,,,,,,20,female,B,2020-05-25_14h17.27.164,Remembering_Displays,2020.1.2,MacIntel,60,9,1,9,1,0.567195,0,18,18,0,1,Stimuli/testStimuliSquare/6u_s_1_2D.png,Stimuli/testStimuliSquare/6u_s_1_2D.png,0,9,0.431695,,,,,,,,,c,2D
,,,,,,,20,female,B,2020-05-25_14h17.27.164,Remembering_Displays,2020.1.2,MacIntel,60,1,0,1,1,0.505855,0,19,19,20,1,Stimuli/testStimuliSquare/6u_s_5_s_2D.png,Stimuli/testStimuliSquare/6u_s_5_s_2D.png,0,9,1.06997,,,,,,,,,s,2D
,,,,,,,20,female,B,2020-05-25_14h17.27.164,Remembering_Displays,2020.1.2,MacIntel,60,1,1,9,0,0.254135,0,20,20,13,1,Stimuli/testStimuliSquare/6u_s_1_s_2D.png,Stimuli/testStimuliSquare/6u_d_1_s_2D.png,1,1,0.56282,,,,,,,,,s,2D
,,,,,,,20,female,B,2020-05-25_14h17.27.164,Remembering_Displays,2020.1.2,MacIntel,60,9,0,1,1,0.34853,0,21,21,11,1,Stimuli/testStimuliSquare/6u_s_6_2D.png,Stimuli/testStimuliSquare/6u_d_6_2D.png,1,1,0.588165,,,,,,,,,c,2D
,,,,,,,20,female,B,2020-05-25_14h17.27.164,Remembering_Displays,2020.1.2,MacIntel,60,9,1,9,1,0.296575,0,22,22,2,1,Stimuli/testStimuliSquare/6u_s_2_2D.png,Stimuli/testStimuliSquare/6u_s_2_2D.png,0,9,0.501975,,,,,,,,,c,2D
,,,,,,,20,female,B,2020-05-25_14h17.27.164,Remembering_Displays,2020.1.2,MacIntel,60,9,1,1,1,0.440595,0,23,23,6,1,Stimuli/testStimuliSquare/6u_s_4_2D.png,Stimuli/testStimuliSquare/6u_s_4_2D.png,0,9,0.73596,,,,,,,,,c,2D